Acc_X,Acc_Y,Acc_Z,Class
2.660984,-9.65303,0.470237,1
2.223091,2.223091,2.223091,1
2.098372,-9.481953,0.92607,1
2.716461,-9.739352,0.912008,1
2.288388,-9.371498,0.91039,1
2.912962,-9.70228,0.736646,1
2.228852,-9.616857,0.908367,1
3.016232,-9.603462,0.339332,1
2.106558,-9.628105,1.443061,1
2.976023,-9.649939,-0.076014,1
2.753596,-9.934291,1.854076,1
2.59375,-9.289001,-0.38491,1
2.928611,-9.751028,1.779072,1
2.686823,-9.188087,-0.27228,1
2.249143,-9.372323,1.645357,1
3.130709,-9.587917,-0.016222,1
2.634844,-9.35352,1.560577,1
3.174378,-9.439078,0.478881,1
2.516101,-9.551991,1.205062,1
3.143967,-9.468188,0.239476,1
1.884608,-9.746713,0.801013,1
3.12039,-9.670359,0.051653,1
2.444743,-9.651731,0.158261,1
2.362298,-9.704863,0.563155,1
2.63997,-9.731813,0.354877,1
2.269175,-9.546275,0.891153,1
3.228938,-9.676829,0.322055,1
2.354986,-9.394252,1.019374,1
2.833451,-9.502458,0.433126,1
2.55099,-9.577183,1.083384,1
3.254255,-9.722054,0.298405,1
2.343163,-9.315666,1.224693,1
3.044094,-9.437285,0.548206,1
2.522192,-9.469981,1.015289,1
3.035383,-9.641018,0.522049,1
2.277353,-9.448642,1.327788,1
3.182762,-9.707962,0.401449,1
2.37527,-9.344981,1.217608,1
3.050022,-10.024115,0.363401,1
2.237793,-9.179734,1.313038,1
3.006599,-10.077515,0.328767,1
2.360646,-9.083399,1.356628,1
3.091852,-10.01705,0.090215,1
2.156594,-9.089271,1.738055,1
3.057296,-9.925819,-0.03384,1
2.489496,-9.083518,1.498631,1
2.787533,-9.893976,0.155551,1
1.82023,-9.430028,1.697362,1
3.085677,-9.741481,-0.114349,1
1.77309,-9.637384,-0.071884,1
2.718282,-9.678398,0.037432,1
3.123216,-9.335023,0.538779,1
2.559942,-9.586288,1.186541,1
2.912436,-9.413576,0.633476,1
2.42173,-9.601543,1.306728,1
3.089237,-9.684492,0.35483,1
2.180882,-9.449255,1.395605,1
3.007267,-9.956244,0.260692,1
2.11303,-9.099244,1.835647,1
3.070467,-9.914344,0.264856,1
2.305692,-9.240117,1.62245,1
2.92874,-10.079576,0.272325,1
2.449062,-8.967352,1.556282,1
3.033991,-9.998727,0.306049,1
1.749768,-9.156519,1.715363,1
3.266618,-9.635431,0.179977,1
2.288918,-9.279077,1.970439,1
2.854762,-9.800686,-0.252634,1
2.526248,-9.34777,1.973522,1
2.609101,-10.010489,-0.266254,1
2.78926,-9.611102,2.074302,1
2.691407,-9.134556,-0.552029,1
2.461223,-9.362642,1.766887,1
3.108849,-9.483285,-0.007108,1
2.303399,-9.396385,1.076904,1
2.705482,-9.759716,0.72609,1
2.521019,-9.929449,0.078617,1
1.908954,-9.654934,0.791919,1
2.778728,-9.998912,-0.100357,1
1.970307,-9.245742,1.623381,1
2.98385,-9.761486,0.120173,1
2.245456,-9.62438,2.046503,1
2.659074,-9.642319,-0.256173,1
2.24308,-9.234303,1.763618,1
3.001596,-9.646167,0.091168,1
2.25379,-9.479981,1.248139,1
2.590887,-9.667835,0.619458,1
2.967806,-9.184658,0.771287,1
2.736725,-9.681011,1.149768,1
2.952594,-9.789809,0.465927,1
2.105613,-9.531289,1.434981,1
3.080798,-9.907229,0.222595,1
2.399324,-8.975362,2.024038,1
2.79828,-9.889095,0.230341,1
2.374542,-9.204081,1.737919,1
3.037972,-9.514988,0.113061,1
1.836799,-9.498881,2.212288,1
2.49129,-9.893362,-0.093021,1
2.286658,-9.436029,2.243745,1
2.671695,-9.403237,-0.344683,1
2.549536,-9.28485,1.849619,1
2.89127,-9.570795,0.063134,1
2.43826,-9.271247,1.355683,1
2.940527,-9.658866,0.54905,1
2.591339,-9.623668,0.485479,1
2.231503,-9.670711,1.066121,1
2.50064,-10.318916,-0.455041,1
2.133973,-9.392285,1.248581,1
3.196406,-9.579155,0.0109,1
2.29393,-9.398857,1.182968,1
2.813951,-9.920203,0.15439,1
2.340621,-9.320147,1.923144,1
2.617105,-9.656104,-0.396593,1
2.744599,-9.62213,1.696724,1
2.614713,-9.356923,-0.39347,1
2.570516,-9.090367,1.994277,1
2.705294,-9.724116,-0.128697,1
2.781681,-9.757366,1.757404,1
2.466496,-9.706107,-0.168529,1
2.861741,-9.433304,2.012056,1
2.591228,-9.499124,-0.400898,1
2.987971,-9.649689,1.739017,1
2.91204,-9.547023,-0.399111,1
2.752943,-9.419196,1.98527,1
2.688594,-9.576401,-0.406074,1
2.819153,-9.273642,1.806224,1
2.973845,-9.71582,-0.030005,1
2.302045,-9.190013,1.618041,1
3.018588,-9.854534,0.118677,1
2.363865,-9.17327,1.880687,1
2.82039,-9.952663,0.203215,1
2.060112,-9.467287,1.106007,1
2.891884,-9.976624,-0.350092,1
1.913486,-9.957865,1.32132,1
2.54259,-9.423975,-0.157428,1
2.713444,-9.515349,1.659165,1
2.4663,-9.776073,-0.104473,1
2.427484,-8.909604,2.042644,1
2.92617,-9.918596,-0.050966,1
2.430228,-9.151333,2.083621,1
2.769354,-10.007951,-0.235819,1
2.772551,-9.199205,1.937236,1
2.430588,-9.709053,-0.008509,1
2.238363,-9.282224,1.929345,1
3.066481,-9.499397,-0.025967,1
2.439715,-9.570658,1.738211,1
2.921232,-9.582376,-0.181177,1
2.553063,-9.519908,1.673653,1
2.873057,-9.517635,-0.002036,1
2.24293,-9.595493,1.458857,1
2.944102,-9.460839,0.284023,1
2.431499,-9.324886,1.143711,1
3.064857,-9.725902,0.555617,1
2.485943,-9.291763,0.87186,1
2.715522,-9.761954,0.910968,1
2.505385,-9.469456,0.661624,1
2.657669,-9.828642,0.99676,1
2.532527,-9.692994,0.408567,1
1.633365,-9.784385,1.171832,1
2.422513,-10.320565,-0.611768,1
1.770038,-9.413866,1.604247,1
3.005983,-9.828926,-0.053484,1
2.170325,-9.143379,1.670234,1
2.862029,-9.832675,0.117823,1
2.203016,-9.342565,1.522099,1
2.862958,-9.716819,0.22953,1
2.292848,-9.43524,1.467174,1
2.945761,-9.821615,0.008414,1
2.198705,-9.17381,1.68299,1
2.900896,-9.84711,0.168781,1
2.214988,-9.218095,1.687133,1
2.94307,-9.932998,-0.003274,1
2.241671,-9.203907,1.475105,1
3.03269,-9.720591,0.089141,1
2.231378,-9.315541,1.316343,1
3.108685,-9.644744,0.210419,1
1.982674,-9.385187,1.736222,1
2.904903,-9.6485,0.234613,1
1.998165,-9.305326,1.657698,1
2.890333,-9.846803,-0.075862,1
2.347792,-9.273179,1.485762,1
2.986375,-9.935334,-0.001372,1
2.531717,-9.035274,1.782732,1
2.919135,-9.961521,0.032577,1
1.904055,-9.69619,1.573356,1
2.317764,-9.549197,-0.576853,1
1.651701,-9.803693,0.91612,1
3.030686,-9.482634,0.215442,1
2.25374,-9.412027,0.663804,1
2.652312,-9.92294,0.584218,1
2.54065,-9.443087,0.711046,1
2.26749,-9.804184,0.897722,1
2.654876,-9.356063,0.67099,1
2.676179,-9.847361,0.989467,1
2.921886,-9.657939,0.501953,1
2.063726,-9.444804,1.580044,1
2.892298,-9.98597,0.246936,1
2.315622,-9.099535,1.377951,1
2.963608,-9.686566,-0.015773,1
1.935187,-9.361997,1.567968,1
2.437776,-9.941177,0.146314,1
2.60569,-9.588251,2.089414,1
2.403192,-9.474257,-0.331921,1
2.550101,-9.428511,2.04848,1
2.525898,-9.454366,0.009904,1
2.108202,-9.580771,1.578839,1
2.918488,-9.507998,0.289091,1
2.502901,-9.332782,1.188078,1
2.755559,-9.710862,0.890113,1
2.303139,-9.393402,0.714966,1
2.544758,-9.797933,0.842714,1
2.459373,-9.3991,0.670526,1
2.158683,-9.955272,1.087106,1
2.097434,-10.214203,-0.440986,1
1.879597,-9.682249,0.706806,1
3.17241,-9.972064,-0.005179,1
2.207731,-9.114103,1.412856,1
2.761719,-10.018473,0.273537,1
2.192925,-9.064593,1.827211,1
2.662517,-10.105165,0.312474,1
2.188157,-9.186779,1.856925,1
3.219077,-9.730494,-0.065495,1
2.302328,-9.269731,1.475829,1
2.646678,-10.091131,0.224693,1
2.349644,-9.064129,1.445506,1
2.732828,-10.005829,0.411358,1
2.144376,-9.26658,1.503482,1
2.609589,-9.957905,0.498895,1
1.949203,-9.244228,1.467133,1
2.858143,-9.89408,0.392041,1
2.178649,-9.23158,1.355675,1
2.982636,-9.752891,0.471034,1
2.40962,-9.426533,0.965693,1
2.985662,-9.798282,0.386872,1
2.212928,-9.30076,1.315045,1
3.031856,-10.020456,0.280541,1
2.267672,-9.065886,1.346238,1
2.657273,-10.276682,0.29832,1
2.099576,-9.067774,1.531981,1
2.345925,-10.124437,-0.134763,1
1.65533,-9.695834,0.849271,1
3.043869,-9.648151,-0.163883,1
2.063211,-9.372776,1.261624,1
2.938295,-9.94949,-0.009123,1
2.147724,-9.320864,1.400604,1
2.772974,-9.926574,0.141326,1
2.002103,-9.184834,1.670813,1
2.861367,-9.975096,-0.059862,1
2.474902,-9.143324,1.601513,1
2.746312,-9.911404,-0.027709,1
2.26896,-9.37101,2.078847,1
2.680403,-9.818484,-0.049856,1
2.226812,-9.243561,2.067997,1
2.668092,-9.841176,-0.092187,1
2.441145,-9.434127,2.282815,1
2.40041,-9.791146,-0.142294,1
2.607526,-9.384975,2.345855,1
2.787577,-9.995262,0.101897,1
2.270938,-9.15875,1.990254,1
2.647949,-9.984341,0.036507,1
1.906922,-9.215774,1.834946,1
2.324689,-9.90224,-0.179418,1
2.252016,-9.22415,2.436987,1
2.654546,-9.539049,0.057797,1
1.9107,-9.520939,1.702139,1
2.681075,-9.726508,0.462338,1
2.120971,-9.877482,0.340994,1
1.645971,-9.775966,0.759854,1
2.757753,-9.960192,-0.236973,1
2.252843,-9.266163,1.645448,1
2.925459,-9.647786,-0.023754,1
1.932539,-9.263638,2.182008,1
2.614513,-10.037159,-0.075681,1
1.988242,-9.043629,2.016384,1
2.428573,-9.826369,0.037049,1
1.902585,-9.337924,1.906024,1
2.699287,-9.61657,0.255899,1
1.842528,-9.545819,1.717394,1
2.789424,-9.697749,0.148628,1
1.93041,-9.578595,1.206368,1
2.826301,-9.641414,0.567829,1
2.028445,-9.66882,1.023546,1
2.697207,-9.585403,0.546044,1
1.944713,-9.466078,0.983388,1
2.664652,-9.915731,0.58976,1
2.196365,-9.477899,1.018234,1
2.637292,-9.734711,0.481941,1
2.364915,-9.305005,1.184123,1
2.736342,-9.736477,0.870381,1
2.491335,-9.383828,0.797549,1
2.430896,-9.816122,0.890846,1
2.509455,-9.677322,0.532597,1
1.909055,-9.574692,1.383311,1
2.276862,-10.171267,-0.038385,1
1.288826,-9.638921,1.201031,1
2.968255,-9.795437,-0.429279,1
1.861159,-9.391921,1.550125,1
2.822193,-9.698692,0.053132,1
1.848737,-9.721193,2.033617,1
2.399702,-9.700702,-0.196876,1
2.400662,-9.579973,1.736615,1
2.352919,-9.513977,0.071609,1
1.919397,-9.403708,1.30641,1
2.614933,-9.726894,0.877832,1
2.544051,-9.677519,0.631776,1
2.027891,-9.678826,1.214692,1
2.544428,-10.034523,0.371651,1
1.907466,-9.157245,2.054124,1
2.719215,-9.667366,-0.036026,1
1.884788,-9.236525,1.972707,1
2.621424,-9.93788,0.035389,1
2.296096,-9.25666,1.765845,1
2.413769,-10.032358,0.22058,1
2.171605,-9.223473,1.921028,1
2.452286,-9.997488,-0.156356,1
2.231573,-9.30489,1.816169,1
2.684813,-9.874597,-0.460926,1
2.322542,-9.264703,2.01616,1
2.304612,-9.95047,-0.187072,1
2.524976,-9.677256,2.023356,1
2.198439,-9.283218,-0.121353,1
2.053898,-9.549224,1.712929,1
2.337928,-9.385257,0.317841,1
1.724722,-10.027918,-0.073013,1
2.382468,-9.760702,0.163372,1
2.78009,-9.385509,0.528845,1
2.381087,-9.822194,0.990004,1
2.586633,-9.545196,0.551459,1
2.221023,-9.729657,1.225477,1
2.582761,-9.782346,0.493913,1
2.097626,-9.38341,1.361454,1
2.443497,-10.003558,0.485869,1
1.886176,-9.263505,1.299145,1
2.474603,-9.54497,0.76125,1
2.283384,-9.707416,1.129147,1
2.362746,-9.458422,0.746228,1
2.257113,-9.786453,1.047666,1
2.209041,-9.517634,0.812745,1
2.501529,-9.806702,0.949145,1
2.358983,-9.563879,0.716426,1
2.207711,-9.739858,0.961882,1
2.57334,-9.624672,0.67746,1
2.18483,-9.636519,1.080858,1
2.637904,-9.63579,0.498147,1
2.007886,-9.735322,1.279227,1
2.76615,-9.69926,0.53663,1
2.140441,-9.514882,1.330621,1
2.634915,-10.059198,0.439099,1
1.67933,-9.124634,1.867238,1
2.511165,-9.708366,0.165002,1
1.50308,-9.828862,1.312525,1
2.533865,-9.906756,-0.674815,1
1.694778,-9.369333,1.311399,1
2.433154,-9.663075,0.427914,1
2.218191,-9.506922,0.870521,1
2.406907,-9.781816,0.76419,1
2.382465,-9.812462,0.421027,1
1.782071,-9.595102,1.350134,1
2.656332,-10.000694,0.408184,1
2.298938,-9.069996,1.458666,1
2.723229,-10.03542,0.414808,1
2.169129,-9.117262,1.804778,1
2.459333,-9.983131,0.235465,1
2.087166,-9.180635,1.884066,1
2.780892,-9.928744,0.242871,1
2.093994,-9.150694,2.031116,1
2.764666,-9.648277,0.14995,1
1.820066,-9.247869,1.980136,1
2.449378,-10.111156,0.065229,1
2.093197,-9.416937,2.175508,1
2.302328,-9.540974,-0.201122,1
2.209441,-9.311219,1.71456,1
2.529689,-9.778596,0.130031,1
2.049413,-9.412066,1.21638,1
2.44206,-9.782668,0.914604,1
2.513188,-9.863939,0.477833,1
1.871222,-9.428829,1.624313,1
2.462222,-9.99959,0.156053,1
1.641177,-9.146132,1.869891,1
2.311334,-9.829075,0.162654,1
1.796603,-9.938672,-0.161133,1
2.460483,-9.836571,0.145584,1
2.422082,-10.090789,0.400516,1
1.773711,-9.218223,1.753112,1
2.529505,-9.777513,0.09509,1
1.943089,-9.262699,2.181689,1
2.25681,-9.780196,-0.113175,1
2.281914,-9.441272,1.776147,1
2.571204,-9.515283,0.340229,1
2.345099,-9.378677,1.143238,1
2.367784,-9.698135,1.079824,1
2.488527,-9.800201,0.658844,1
2.14097,-9.469673,1.318391,1
2.66352,-10.166664,0.275403,1
2.035796,-9.215004,1.358462,1
2.864279,-10.129232,0.208281,1
2.035922,-9.031315,1.429955,1
2.313543,-10.272993,0.120336,1
1.997769,-9.139764,1.549344,1
2.549151,-9.977771,0.308462,1
2.041909,-9.317369,1.157794,1
2.813926,-9.939636,0.389756,1
1.821512,-9.286554,1.298331,1
2.906635,-9.760229,0.371234,1
1.962801,-9.287731,1.639576,1
2.325997,-10.351454,0.352099,1
2.022393,-9.004228,1.611715,1
2.158201,-10.119205,0.196785,1
1.330874,-9.44752,1.301779,1
2.479953,-10.096333,-0.231223,1
1.78841,-9.269978,1.485868,1
2.407302,-9.247115,-0.361545,1
2.021699,-9.524063,1.318729,1
2.453399,-9.695771,0.471272,1
2.058068,-9.36869,1.146303,1
2.515737,-9.836354,0.79907,1
2.432296,-9.559111,0.606821,1
2.115767,-9.687318,1.127925,1
2.742342,-9.719231,0.57177,1
2.101732,-9.463756,1.359666,1
2.582075,-9.936954,0.51356,1
2.071972,-9.42362,1.381083,1
2.453743,-10.23427,0.520615,1
1.888929,-9.062996,1.597918,1
2.1738,-10.435908,0.301487,1
2.142332,-9.012636,1.4177,1
2.174851,-10.281817,0.439665,1
2.030135,-9.093997,1.858475,1
2.470789,-10.063806,0.401271,1
2.154083,-9.209565,1.76961,1
2.588303,-9.74227,-0.03001,1
1.885013,-9.267178,1.842108,1
2.34318,-10.092602,0.056157,1
2.230252,-9.379507,2.109821,1
2.070166,-9.695044,-0.240836,1
1.865679,-9.38691,1.986234,1
2.321975,-9.783801,0.09354,1
1.754326,-10.096322,0.273283,1
2.075782,-9.714042,0.570735,1
2.503746,-9.566444,0.670984,1
2.103551,-9.701895,1.125799,1
2.888559,-9.630224,0.786086,1
2.056041,-9.482328,1.478489,1
2.39782,-10.219647,0.411838,1
2.060598,-9.178342,1.312983,1
2.564666,-10.254864,0.460865,1
1.971056,-8.987141,1.528423,1
2.658823,-10.061915,0.383758,1
2.114003,-9.246457,1.335282,1
2.677427,-9.480175,0.603298,1
2.365182,-9.73775,1.263067,1
2.378041,-9.56009,0.577347,1
2.165746,-9.72797,1.098945,1
2.292623,-9.548467,0.824161,1
2.195589,-9.706353,1.17525,1
1.963369,-9.628936,1.044417,1
2.47535,-9.769803,0.693935,1
2.22712,-9.450771,1.061906,1
2.357741,-9.832479,0.768112,1
2.432419,-9.54123,0.911833,1
2.155524,-9.69053,1.246574,1
2.242145,-10.196373,0.370861,1
1.892967,-9.304602,1.514578,1
1.953731,-10.338593,0.121577,1
1.758342,-9.221866,1.162754,1
2.417066,-10.139354,0.019957,1
1.845672,-9.340899,1.762555,1
2.513544,-9.808902,0.340022,1
1.634887,-9.312161,1.315129,1
2.74951,-10.029706,0.293766,1
2.000475,-9.350238,1.803798,1
2.382301,-9.939776,0.443147,1
2.05257,-9.420225,1.517294,1
2.337374,-9.961735,0.468738,1
1.830179,-9.250788,2.04362,1
2.091591,-9.819827,-0.069225,1
2.1758,-9.857368,2.211094,1
1.996933,-9.187621,-0.147458,1
2.348887,-9.374439,2.163859,1
2.038969,-9.974127,0.098554,1
2.7523,-9.358147,2.253397,1
1.943224,-9.881272,0.049966,1
2.497543,-9.566427,2.243817,1
2.101292,-9.411255,-0.062512,1
2.011502,-9.396649,1.453684,1
2.536439,-9.828332,0.526578,1
2.111622,-9.426786,1.857745,1
2.424035,-9.673399,0.292593,1
1.929903,-9.534368,1.286416,1
2.546068,-9.56333,0.76609,1
2.075624,-9.769186,0.789868,1
1.687854,-9.801127,1.068237,1
1.975824,-10.362061,-0.384596,1
2.05919,-9.392254,1.463502,1
2.467839,-10.092686,0.130002,1
2.163595,-9.261824,1.682101,1
2.444332,-9.947585,0.237472,1
2.046337,-9.195483,1.851629,1
2.479995,-9.914502,0.394791,1
1.933168,-9.376583,1.362031,1
2.474179,-9.868834,0.352584,1
2.02713,-9.560397,1.489941,1
2.379258,-9.84761,0.292549,1
1.992474,-9.501615,1.606741,1
2.384817,-10.077778,0.07167,1
2.051176,-9.246253,1.528274,1
2.331982,-10.113001,0.322908,1
1.926545,-9.269567,1.632425,1
2.207168,-10.118824,0.275368,1
2.009916,-9.349159,1.630827,1
2.386471,-9.820407,-0.001504,1
2.099253,-9.412995,1.529635,1
2.492132,-9.847417,0.326723,1
1.822539,-9.284468,1.975249,1
2.320259,-10.08566,-0.034121,1
2.075369,-9.431964,2.158344,1
2.08507,-9.45002,0.016821,1
1.743057,-9.532401,1.581102,1
2.158295,-9.854578,0.613633,1
1.837622,-10.268064,0.104196,1
1.375076,-9.550745,1.218312,1
2.470897,-10.122662,0.1971,1
2.012139,-9.232406,1.701804,1
2.157312,-9.950086,0.10899,1
1.838806,-9.409107,1.867464,1
2.043224,-10.017422,-0.203293,1
2.406644,-9.084792,2.312435,1
2.15998,-9.657836,0.092977,1
1.704981,-9.584633,1.804007,1
2.573472,-9.722542,0.265295,1
2.151101,-9.417198,1.036029,1
2.159971,-9.842128,1.229664,1
2.537536,-10.256967,0.352114,1
1.778206,-9.082832,1.782472,1
2.430589,-10.022073,0.256102,1
1.914038,-9.354245,1.896485,1
2.577053,-9.950676,-0.064668,1
1.821686,-9.398221,1.730893,1
2.508518,-9.808429,0.294683,1
1.60393,-9.334808,1.466327,1
2.339644,-10.15039,-0.025679,1
2.241351,-9.385799,2.22102,1
2.107562,-9.659534,-0.214315,1
2.319352,-9.894098,1.933641,1
2.096977,-9.389494,-0.183209,1
2.108093,-9.618039,1.782724,1
2.119293,-9.490585,0.501411,1
1.886867,-10.213016,0.030044,1
1.634896,-9.683155,0.189316,1
2.939375,-10.098376,-0.086665,1
1.963402,-9.105355,1.22564,1
2.588627,-10.073951,0.198712,1
1.87454,-9.239971,1.527628,1
2.865836,-9.681211,-0.103243,1
1.874596,-9.521907,1.698282,1
2.522959,-9.850531,-0.006079,1
1.47982,-9.156119,2.202552,1
2.294323,-9.661077,0.219321,1
2.049224,-9.560654,0.985025,1
2.317803,-9.750643,0.744577,1
2.216326,-9.49164,0.841649,1
2.189157,-9.764023,1.005851,1
2.58394,-9.841759,0.342561,1
1.748272,-9.484456,1.497474,1
2.523938,-10.050685,-0.008175,1
2.018288,-9.269505,1.706822,1
2.545664,-9.732738,0.104561,1
1.749027,-9.485171,1.864214,1
2.198511,-9.74783,-0.234083,1
2.113942,-9.405148,1.845033,1
2.217513,-9.662042,0.044355,1
1.683251,-9.562917,1.580011,1
2.368263,-9.740881,0.666218,1
2.403749,-9.852104,0.481573,1
1.682611,-9.533313,1.343515,1
2.061591,-10.255987,0.204212,1
1.541277,-9.336328,1.465604,1
2.237791,-9.823655,-0.732256,1
1.559184,-9.603727,0.929612,1
2.563118,-9.702402,0.252848,1
2.162396,-9.606042,0.750551,1
1.786075,-9.874669,1.161258,1
2.494268,-9.874582,0.444558,1
1.647962,-9.458136,1.498552,1
2.309557,-10.218955,0.129001,1
1.747752,-9.236012,1.315242,1
2.564226,-9.935253,0.206434,1
1.640453,-9.394285,1.906513,1
1.91088,-9.886405,0.26863,1
2.030412,-9.496782,2.145433,1
2.170648,-9.832184,-0.575249,1
2.119368,-9.04811,2.108293,1
2.462156,-9.761637,-0.011042,1
1.937247,-9.574997,1.546993,1
2.344517,-9.649838,0.481207,1
2.074785,-9.491465,0.894533,1
2.115663,-9.839096,1.086724,1
2.374254,-9.7996,0.548917,1
1.68336,-9.683656,1.263595,1
2.573984,-10.025201,0.357105,1
1.718698,-9.159513,1.772404,1
2.534681,-9.917104,0.027767,1
1.792141,-9.088522,2.325591,1
1.993778,-10.106236,-0.136657,1
1.862316,-9.987052,1.788792,1
2.025172,-9.225115,-0.14649,1
1.874383,-10.294875,-0.07195,1
1.533271,-9.62615,0.452358,1
2.834566,-9.996302,0.091022,1
1.675389,-9.297868,1.794942,1
2.306178,-10.047139,0.133455,1
1.87819,-9.160931,2.033301,1
2.468,-9.770027,0.08256,1
1.59588,-9.168566,1.94878,1
2.270331,-10.391413,0.070597,1
1.925931,-9.132222,1.610842,1
2.434477,-10.164331,0.234118,1
1.786589,-9.391191,1.277814,1
2.667241,-9.773576,0.173829,1
1.915496,-9.257275,1.936358,1
2.570814,-10.185565,0.042822,1
1.670763,-9.176276,1.812671,1
2.384333,-10.022426,0.194399,1
1.69244,-9.22665,1.580667,1
2.827835,-10.144462,0.156564,1
2.048962,-9.292902,1.44249,1
2.626812,-9.800709,0.272765,1
1.732595,-9.141106,2.054911,1
2.341751,-10.082142,0.062421,1
1.845357,-9.249953,1.914682,1
2.248148,-10.15179,-0.033275,1
1.730688,-9.809086,2.242119,1
1.912393,-9.511432,-0.201454,1
1.265284,-9.701479,0.95559,1
2.418795,-9.689587,0.187654,1
1.788777,-9.782849,0.787396,1
2.177759,-9.702034,0.637459,1
1.93769,-9.594409,0.607706,1
2.001226,-9.889772,1.034456,1
2.043738,-9.695332,0.74782,1
1.954848,-9.757385,1.199816,1
2.210016,-10.114736,0.258692,1
1.562306,-9.350379,1.228116,1
2.492415,-9.954821,0.379388,1
1.856303,-9.236611,1.567158,1
2.169755,-10.345826,0.496951,1
1.836272,-8.922509,2.185175,1
2.20035,-9.975324,0.133605,1
1.326275,-9.230762,1.947265,1
2.444473,-9.946429,0.344189,1
1.68145,-9.414955,2.02109,1
2.437565,-9.896908,0.541033,1
1.746973,-9.438983,1.440298,1
2.28292,-9.95906,0.43954,1
1.933613,-9.41157,1.501362,1
2.627038,-9.875258,0.22072,1
1.776576,-9.330364,1.687373,1
1.967683,-10.13662,0.262973,1
1.566772,-9.489935,1.712411,1
2.247866,-10.095859,-0.269824,1
1.348339,-9.23446,1.724594,1
1.611574,-10.031976,0.086441,1
1.999833,-9.964981,0.477801,1
1.397109,-9.518104,1.264,1
2.646021,-9.798553,0.441759,1
1.821193,-9.472365,1.319993,1
2.55666,-9.941367,0.519408,1
1.935893,-9.209052,1.665354,1
2.282245,-10.240559,0.437654,1
1.812995,-9.109501,1.536009,1
2.223581,-10.462626,0.364216,1
1.872549,-8.856844,1.689876,1
2.554399,-10.204543,0.530899,1
1.928276,-9.187542,1.430081,1
2.055399,-10.42844,0.262296,1
1.786589,-9.067981,1.695472,1
2.359622,-10.031822,0.19154,1
1.638776,-9.482837,1.75763,1
2.753681,-9.765618,-0.01331,1
1.825362,-9.511769,1.837397,1
2.260116,-10.189679,0.132872,1
2.087148,-9.09336,1.785626,1
2.147897,-10.154437,0.242281,1
1.835066,-9.115969,1.951672,1
2.474328,-10.120679,0.266138,1
2.137929,-9.023235,1.827742,1
1.93851,-10.223002,0.385776,1
1.629653,-9.497586,1.158475,1
2.052144,-10.010798,-0.200158,1
1.348489,-9.707482,1.443636,1
1.976629,-10.186628,-0.149277,1
2.160105,-9.124393,1.674244,1
2.009874,-10.226422,0.005569,1
1.969718,-9.218405,1.773034,1
2.015571,-10.173559,0.05786,1
1.808484,-9.39261,1.830351,1
2.174453,-10.032084,0.055409,1
1.985038,-9.115683,1.643761,1
2.393232,-10.252081,0.223044,1
1.689271,-9.10564,1.95315,1
2.297897,-9.96184,0.33786,1
1.65988,-9.155238,2.000391,1
2.207733,-10.396507,0.401656,1
1.650275,-9.302613,1.729338,1
2.16217,-10.168106,0.22679,1
1.941736,-9.292142,1.611905,1
2.051036,-10.138618,0.397059,1
1.575328,-9.333221,1.791295,1
2.452564,-9.79035,0.231937,1
1.551289,-9.605271,1.851462,1
2.548805,-9.69796,0.03591,1
1.760323,-9.178012,2.363054,1
2.140679,-10.266975,-0.04593,1
1.462621,-9.213453,1.688097,1
2.025749,-9.93063,0.093885,1
1.622409,-10.026907,0.299992,1
1.587837,-9.831387,0.663153,1
2.106282,-9.534934,0.822989,1
1.97809,-9.877026,1.100927,1
2.282861,-9.448417,0.872699,1
1.94563,-9.764146,1.386724,1
2.251321,-9.544514,0.795323,1
2.086336,-9.773593,1.185919,1
2.126621,-9.930969,0.492112,1
1.711931,-9.513934,1.495246,1
2.112502,-9.756549,0.705117,1
1.736166,-9.645437,1.509092,1
2.056548,-9.69241,0.603897,1
1.763475,-9.774663,1.317117,1
2.230237,-9.639462,0.621386,1
1.774348,-9.722673,1.434048,1
2.167173,-9.825661,0.649549,1
1.699757,-9.523768,1.525398,1
2.279132,-9.693515,0.76649,1
1.746052,-9.631787,1.277484,1
2.08984,-9.82515,0.649924,1
1.554288,-9.632228,1.558625,1
2.275258,-10.047568,0.423723,1
1.863175,-9.285866,1.653196,1
1.964278,-9.893792,0.333069,1
1.201701,-9.732838,1.591565,1
1.989848,-10.045377,0.260419,1
0.628398,-9.607059,1.142174,1
2.434016,-9.921174,-0.098662,1
1.412513,-9.801525,1.141593,1
2.10192,-9.699988,0.532287,1
1.424693,-9.782001,1.40256,1
2.221495,-9.704763,0.524809,1
1.536624,-9.551202,1.285619,1
2.1086,-9.875668,0.999959,1
1.900712,-9.716938,0.636884,1
1.7042,-9.788581,1.455223,1
2.279525,-9.819444,0.563242,1
1.747904,-9.396104,1.660285,1
1.810596,-10.401599,0.470678,1
1.702062,-8.953405,1.838084,1
1.896965,-10.352893,0.369321,1
1.760581,-9.072958,1.545447,1
2.331813,-10.11595,0.291948,1
1.977941,-9.186953,1.718249,1
1.884348,-10.250341,0.179548,1
1.364138,-9.072969,1.645717,1
2.387703,-9.994275,-0.063172,1
1.70365,-9.347127,1.914762,1
2.452978,-9.712748,0.032215,1
1.831375,-9.189063,2.200137,1
1.884431,-10.293715,0.19558,1
1.634331,-9.539411,1.950582,1
1.694102,-9.691728,-0.136781,1
1.659446,-9.522409,1.831265,1
1.683351,-9.949356,0.07014,1
1.500258,-9.885174,0.488601,1
1.740604,-9.849888,0.455251,1
1.96091,-9.585316,0.770015,1
1.730493,-9.919422,1.083874,1
1.960302,-9.651434,0.741379,1
1.796026,-9.752798,1.319713,1
2.059147,-9.893547,0.556278,1
1.655156,-9.581264,1.431986,1
2.171246,-9.859127,0.668553,1
1.478823,-9.497721,1.665039,1
2.240081,-10.035025,0.552111,1
1.658458,-9.336735,1.466376,1
1.897737,-9.684139,0.757777,1
1.604264,-9.697309,1.60539,1
1.992473,-9.849676,0.491804,1
1.541514,-9.7229,1.57672,1
1.8853,-9.861223,0.549617,1
1.47331,-9.580034,1.713173,1
2.030437,-10.005054,0.487231,1
1.461812,-9.479546,1.381521,1
2.330278,-9.854681,0.483161,1
1.707983,-9.462099,1.608434,1
1.833571,-10.329208,0.348982,1
1.733201,-9.161197,1.752535,1
1.834514,-10.222546,0.202235,1
1.453623,-9.176184,1.920506,1
2.068296,-10.090258,0.314016,1
0.7669,-10.179463,1.404895,1
1.557176,-9.744037,-0.625621,1
1.740391,-9.481023,1.526163,1
1.99178,-9.676518,0.283754,1
1.697433,-9.691738,1.713352,1
2.046104,-9.722388,0.375382,1
1.659514,-9.412192,0.989274,1
1.955252,-9.950353,1.116451,1
1.913477,-9.742137,0.698804,1
1.571594,-9.768832,1.27073,1
1.980036,-9.715781,0.586806,1
1.661043,-9.750136,1.333849,1
1.819026,-9.803394,0.541392,1
1.252238,-9.743943,1.459683,1
1.853973,-10.013899,0.569122,1
1.40837,-9.420735,1.710428,1
1.844087,-10.110453,0.552286,1
1.708845,-9.26208,1.756939,1
1.946231,-10.181216,0.508758,1
1.551552,-9.189864,2.185457,1
1.798159,-10.177391,0.335286,1
1.862222,-9.147802,1.574452,1
1.916883,-10.19807,0.226313,1
1.615604,-9.250703,1.952909,1
1.981922,-10.106868,0.17736,1
1.588053,-9.27547,2.036591,1
1.728424,-9.892527,0.199369,1
1.162413,-9.591247,1.633816,1
1.354712,-10.295759,-0.032054,1
1.034198,-9.465756,1.304121,1
1.728897,-9.981278,0.081572,1
1.523198,-9.672572,1.664233,1
1.926912,-9.731661,0.623721,1
1.65751,-9.501544,1.302624,1
1.801127,-9.877107,1.080386,1
1.724706,-9.57917,0.992053,1
1.916853,-9.863225,0.774474,1
1.559207,-9.494052,0.977925,1
1.820498,-9.956032,1.096713,1
1.588071,-9.712532,0.786373,1
1.479283,-9.92491,1.151212,1
1.716945,-9.685697,0.615987,1
1.538601,-9.821152,1.28127,1
1.964217,-10.021318,0.320779,1
1.490193,-9.543309,1.530824,1
1.615261,-10.453636,0.503698,1
1.501276,-9.089389,1.491224,1
1.541601,-10.44611,-0.078215,1
1.157296,-9.509045,1.160785,1
1.535137,-10.11835,-0.164263,1
1.375674,-9.543015,1.242141,1
1.781099,-10.222953,0.127526,1
1.547541,-9.765574,1.952635,1
1.363643,-9.686794,-0.368819,1
1.959647,-9.347979,2.08689,1
1.5391,-9.803387,0.08404,1
1.758135,-9.58362,2.103732,1
1.65202,-9.723311,0.494168,1
1.587389,-9.79252,1.966867,1
1.863482,-9.663343,0.506043,1
1.42892,-9.450805,1.492365,1
1.748728,-9.937274,1.06124,1
1.59223,-9.797394,0.694684,1
1.440566,-9.765636,1.359123,1
1.786919,-9.872039,0.710255,1
1.565693,-9.671355,1.360658,1
1.880231,-10.243075,0.271357,1
1.324632,-9.346499,1.649017,1
1.137717,-10.478988,0.282714,1
1.021145,-9.672741,1.269542,1
1.58419,-10.063843,-0.305911,1
1.242051,-9.290257,1.739784,1
1.798049,-10.18712,0.071194,1
1.628905,-9.69606,2.340629,1
1.241607,-9.914125,-0.230545,1
2.060727,-9.683139,2.331714,1
1.090703,-9.798733,-0.224585,1
2.027003,-9.742585,2.485603,1
1.254729,-9.763433,-0.243627,1
1.950089,-9.719872,2.275011,1
1.289968,-9.85184,-0.051359,1
1.759838,-9.223118,1.71945,1
1.679147,-10.289253,0.078116,1
1.787762,-9.892486,2.27466,1
1.357761,-9.291713,-0.248338,1
1.415704,-9.608852,1.81592,1
1.429316,-9.360529,0.060603,1
1.344412,-9.7004,1.844725,1
1.609059,-9.949954,0.00446,1
1.338808,-9.504962,1.9906,1
1.730169,-9.982653,0.365583,1
1.39962,-9.5379,1.170633,1
1.571126,-9.972572,1.048725,1
1.406216,-10.171385,0.510813,1
0.996663,-9.497932,1.789391,1
1.170389,-10.345991,0.184594,1
0.833309,-9.506431,1.169914,1
1.781192,-10.056825,-0.294009,1
1.078053,-9.718403,1.344404,1
1.456094,-10.127771,0.028608,1
1.498167,-9.613629,2.072192,1
1.274952,-9.703523,-0.424489,1
1.786022,-9.828904,1.914959,1
1.217241,-9.692294,0.008317,1
1.887987,-9.380688,2.021304,1
1.429678,-9.986943,0.148829,1
1.259058,-9.624862,1.553855,1
1.597596,-9.805434,0.789218,1
1.540136,-9.750909,0.698445,1
1.359027,-9.862732,1.492215,1
1.823504,-10.025409,0.591578,1
1.255722,-9.349786,1.697039,1
1.585332,-10.299842,0.470945,1
1.452352,-9.197869,1.898763,1
1.519376,-10.117917,0.295929,1
1.208815,-9.135303,2.206438,1
1.506857,-10.167008,0.286533,1
1.35531,-9.427778,1.901978,1
1.250408,-10.030215,-0.070248,1
1.087746,-9.263432,1.970207,1
1.6169,-10.008155,0.680334,1
1.70246,-9.623699,0.781988,1
1.356182,-9.818548,1.317698,1
1.729222,-10.038424,0.55108,1
1.103302,-9.641507,1.665097,1
0.978154,-10.659418,0.415515,1
1.137338,-9.27225,1.301751,1
1.221202,-10.094069,-0.107237,1
0.86865,-9.632323,1.307127,1
1.249027,-10.278107,-0.200056,1
1.778573,-9.477588,2.177676,1
1.246262,-9.646648,0.148687,1
1.499727,-9.575653,1.266127,1
1.402651,-9.863829,1.18658,1
1.342558,-10.083328,0.536916,1
1.090222,-9.645634,1.450232,1
1.683535,-10.46639,0.391033,1
1.065137,-9.10236,1.764266,1
1.467152,-10.457215,0.411627,1
1.348104,-9.214319,1.659611,1
1.522301,-10.42472,0.161736,1
1.490028,-9.140346,1.828714,1
1.76081,-10.075778,0.069168,1
0.892697,-9.404624,1.776164,1
1.52132,-10.190957,0.139058,1
1.201976,-9.28286,2.087525,1
1.074483,-10.450452,-0.197857,1
1.797276,-9.174931,1.996478,1
1.401978,-9.999905,-0.056132,1
0.953714,-9.698235,1.982237,1
1.611873,-9.710594,0.32825,1
1.603798,-9.624866,1.423228,1
1.465486,-9.738063,1.399699,1
1.213258,-10.458939,0.32743,1
1.029795,-9.315149,1.834783,1
1.45415,-9.970522,0.060832,1
0.566729,-10.254993,1.476175,1
1.212554,-9.546659,-0.45995,1
1.517349,-9.475816,1.659501,1
1.425499,-9.935255,0.067489,1
1.119376,-9.674015,1.104454,1
1.608816,-9.905737,0.664964,1
1.507038,-9.661329,0.943727,1
1.416488,-9.821136,1.292235,1
1.877346,-10.085951,0.480087,1
1.191334,-9.548607,1.378116,1
1.746831,-10.373079,0.352079,1
1.354487,-9.194366,1.940477,1
1.733908,-10.041094,0.217923,1
0.980632,-9.277336,1.738551,1
1.578629,-10.512954,0.058563,1
1.460338,-9.543245,2.514046,1
1.225059,-9.459242,-0.180567,1
1.29588,-9.502346,1.996412,1
1.618553,-9.80558,0.560627,1
1.275304,-9.645083,1.232288,1
1.596743,-9.916007,1.001581,1
1.302719,-9.994719,0.535079,1
1.166369,-9.689126,1.576729,1
1.781417,-10.069323,0.410637,1
1.431498,-9.248699,1.790828,1
1.25393,-10.456769,0.643212,1
1.382532,-9.172622,1.914689,1
1.258585,-10.173785,0.322134,1
0.909299,-9.424034,1.872331,1
1.052299,-10.077766,-0.053382,1
0.703068,-10.276505,1.743717,1
1.197068,-9.94669,-0.516144,1
1.686672,-9.762424,2.373979,1
1.004123,-9.544395,-0.190221,1
1.458646,-9.678211,1.920445,1
1.291253,-9.720349,0.116122,1
1.297618,-9.666649,1.893415,1
1.559056,-9.859373,0.259278,1
1.170224,-9.589795,1.500843,1
1.618272,-9.937024,0.56717,1
1.283961,-9.688039,1.600438,1
1.448067,-9.916534,0.436005,1
1.310941,-9.492786,1.557613,1
1.507596,-9.969482,0.808381,1
1.440075,-9.58753,0.714363,1
1.329559,-9.940793,1.069355,1
1.344494,-9.852041,0.769222,1
1.14791,-9.756956,1.354251,1
1.387513,-9.762798,0.763302,1
1.372807,-9.933779,1.209148,1
1.475998,-9.897421,0.745738,1
0.964133,-9.686611,1.710378,1
1.37641,-10.534226,0.382429,1
1.1265,-9.16466,1.588228,1
1.192453,-10.183977,0.279459,1
1.051213,-9.400054,1.939084,1
1.198391,-10.217195,0.092792,1
0.476006,-9.542923,1.308126,1
1.429439,-10.012282,0.226306,1
1.15035,-9.742505,0.703994,1
1.131093,-9.943287,1.026002,1
1.213145,-10.029059,0.316933,1
0.964316,-9.722454,1.385835,1
1.413136,-10.563251,0.267805,1
1.290703,-8.959568,2.015953,1
1.543221,-10.202521,0.149751,1
1.306379,-9.294022,1.83217,1
1.639699,-9.962657,-0.073447,1
0.967716,-9.489705,2.093515,1
1.061437,-10.153741,0.145681,1
1.297547,-9.224511,1.817813,1
1.337843,-10.518294,0.286699,1
1.181464,-9.324002,1.935266,1
0.917586,-10.344857,-0.115445,1
1.606001,-9.39907,2.354726,1
1.206589,-10.213039,0.11213,1
1.247267,-9.234376,2.157753,1
1.13011,-10.343175,-0.037363,1
1.469193,-9.224813,1.94691,1
1.134414,-10.332964,0.022117,1
1.25502,-9.280642,2.112044,1
0.951496,-10.381751,0.053008,1
1.189142,-9.454042,2.230451,1
0.903792,-9.905335,-0.204894,1
1.166761,-9.699056,1.926537,1
0.946502,-9.921453,0.25129,1
0.729858,-10.103709,0.229561,1
0.727805,-10.032738,1.178887,1
1.461802,-10.451621,0.462814,1
1.022852,-9.095711,2.00245,1
1.454695,-10.316489,0.176431,1
1.248006,-9.124581,2.093961,1
1.577776,-10.026983,0.202167,1
0.879339,-9.557642,1.801669,1
1.326064,-10.089329,0.284878,1
1.187179,-9.219805,1.78233,1
0.918853,-10.535458,0.342684,1
1.254335,-9.337801,2.319102,1
1.120334,-10.251522,-0.074134,1
1.497962,-9.147202,1.901932,1
0.618747,-10.550115,0.293411,1
1.622444,-9.611843,2.598385,1
0.986707,-10.013197,-0.536092,1
1.494432,-9.60888,2.201449,1
0.937727,-9.946145,-0.521297,1
1.877046,-9.738524,2.127993,1
1.216105,-9.918234,-0.444608,1
1.631847,-9.757625,2.475134,1
0.872524,-9.515675,-0.283857,1
1.470506,-9.268507,2.133334,1
1.342299,-9.943167,0.201778,1
0.87245,-9.751717,1.804886,1
1.419791,-9.908844,0.634289,1
0.760137,-10.063804,0.384056,1
0.85094,-9.878664,0.879953,1
1.211771,-10.223035,0.251282,1
0.906384,-9.564868,1.401171,1
1.19518,-10.534639,0.343177,1
0.822013,-9.24297,1.569794,1
1.158258,-10.536249,0.074626,1
1.116197,-9.261497,1.712057,1
1.381961,-10.201931,0.0411,1
1.156363,-9.367908,1.923916,1
1.403357,-10.154931,0.176886,1
1.158073,-9.140441,1.953239,1
1.493413,-10.341237,0.224248,1
0.926673,-9.213247,2.057784,1
1.471536,-10.063622,-0.017905,1
1.152105,-9.47073,1.914006,1
1.444429,-10.061407,-0.018412,1
1.0886,-9.603114,1.864953,1
1.367164,-9.956949,0.355422,1
0.767144,-9.573936,1.688459,1
1.076506,-10.229589,0.160988,1
1.356061,-9.274117,2.131824,1
0.943493,-10.278607,-0.335725,1
1.341193,-9.632591,2.302415,1
1.079462,-9.5024,-0.004662,1
0.986055,-9.798917,1.340571,1
1.41243,-9.835905,0.523837,1
1.077492,-9.561577,1.284225,1
1.029024,-10.097539,1.389325,1
0.436197,-10.67286,0.162316,1
0.266815,-9.586168,1.135016,1
1.593005,-10.01653,-0.336848,1
0.972093,-9.601491,2.057121,1
1.052759,-10.181524,-0.327534,1
1.494916,-9.195523,2.182396,1
0.870988,-10.456108,-0.072972,1
1.574328,-9.492619,2.376152,1
1.053133,-9.961395,-0.36017,1
1.275133,-9.457439,2.494376,1
0.924094,-10.111856,-0.150842,1
1.333532,-9.853573,2.425125,1
0.806431,-10.054815,-0.481713,1
1.2975,-9.935466,2.351696,1
0.852319,-9.56422,-0.365903,1
1.041908,-9.343856,2.328333,1
1.0601,-9.291374,-0.012325,1
0.682442,-9.796399,1.783708,1
1.244215,-9.887108,0.120459,1
1.121652,-9.705045,1.574241,1
1.430494,-9.864632,0.403798,1
1.094063,-9.534319,1.523709,1
1.375491,-9.939256,0.726945,1
1.307695,-9.774092,0.771958,1
1.139165,-9.836082,1.410624,1
1.11941,-10.481894,0.494382,1
0.552385,-9.481952,1.853972,1
0.510765,-10.544736,0.450362,1
0.478617,-9.263231,1.517049,1
1.199394,-10.068832,0.230396,1
0.799751,-9.458768,1.41066,1
0.827111,-10.603942,0.024593,1
1.039673,-9.749654,2.080797,1
0.699358,-9.765754,-0.235441,1
1.384941,-9.338243,2.108061,1
1.049921,-10.018864,0.056064,1
0.715824,-9.714167,1.938454,1
1.257217,-9.877439,0.370087,1
0.765703,-9.665895,1.561128,1
1.368607,-9.956603,0.885248,1
1.028921,-9.930521,0.747757,1
0.850684,-9.706563,1.859637,1
1.344554,-10.155959,0.439044,1
1.027277,-9.30213,2.200217,1
1.090925,-10.275335,0.297299,1
0.995768,-9.425108,2.018306,1
1.074427,-10.20346,0.260269,1
1.06891,-9.307001,2.060386,1
1.233525,-10.154858,0.289673,1
1.129845,-9.555209,1.871022,1
1.219038,-10.087762,0.336711,1
0.704994,-9.402481,2.018944,1
0.99793,-10.138556,0.201991,1
1.15197,-9.211121,1.662945,1
0.833982,-10.561198,0.141766,1
1.110793,-9.71299,2.602053,1
0.713327,-9.578761,-0.076678,1
0.630899,-9.864368,1.752269,1
0.582519,-9.961928,0.097233,1
0.388476,-9.866016,0.877966,1
1.017506,-9.983785,0.709156,1
1.158018,-9.469886,1.002535,1
0.967495,-10.207481,0.997579,1
1.102009,-9.631349,1.345963,1
0.954091,-9.881869,1.213043,1
1.241805,-9.904578,0.738423,1
0.856348,-9.75911,1.487679,1
1.290377,-9.779324,0.731511,1
0.726612,-9.797064,1.460387,1
1.062654,-9.888905,0.588717,1
0.812156,-9.844871,1.545331,1
1.29296,-10.209815,0.5167,1
0.848421,-9.535249,1.515405,1
0.884913,-10.618783,0.396329,1
1.052493,-9.260108,1.866269,1
0.967024,-10.545977,0.370663,1
0.957516,-9.203299,1.830606,1
1.057258,-10.548491,0.078877,1
1.064604,-9.139202,1.961965,1
1.109755,-10.419497,0.246261,1
1.101297,-9.213839,1.864426,1
1.26356,-10.009397,0.067078,1
0.654091,-9.549566,1.96605,1
1.010537,-10.196142,0.509091,1
0.693006,-9.380023,1.971977,1
0.565445,-10.299746,-0.378787,1
0.244776,-9.778545,1.294187,1
1.074078,-9.947579,0.491734,1
0.831612,-9.644377,1.089588,1
0.995902,-10.060118,0.961765,1
1.381081,-9.90661,0.547605,1
0.765121,-9.708762,1.459402,1
1.214912,-10.44723,0.352924,1
0.693997,-9.270133,1.708231,1
1.278474,-10.429565,0.187338,1
1.050433,-9.234632,1.665147,1
1.221369,-10.068629,0.2197,1
0.773992,-9.24574,2.157783,1
0.969558,-10.349698,0.170237,1
0.943282,-9.53721,2.302626,1
1.158118,-10.076679,-0.274687,1
1.211375,-9.383827,2.363502,1
0.617647,-10.23981,-0.082735,1
1.365704,-9.729033,2.502752,1
-0.311605,-10.66186,0.998622,1
-0.567535,-10.263616,-0.213955,1
-0.18172,-9.126697,1.30891,1
-0.447716,-10.411621,1.201563,1
-0.292931,-10.349654,-0.077692,1
-0.137667,-9.054217,0.935589,1
-0.005028,-9.864349,1.075954,1
-0.206881,-10.992325,-0.214172,1
0.213563,-9.05523,1.223676,1
0.323979,-9.840169,0.868007,1
-0.066559,-10.915884,-0.176932,1
0.194801,-9.232803,1.09415,1
0.545758,-9.770139,0.93745,1
-0.036022,-10.557776,0.238005,1
0.295923,-9.075581,1.313938,1
0.511706,-9.710664,1.159229,1
0.512,-10.617328,0.106422,1
0.470787,-9.522175,1.509979,1
0.382953,-9.852381,0.33866,1
0.911864,-9.62012,1.372095,1
0.718141,-10.155965,1.712094,1
0.547184,-10.208116,-0.118731,1
0.846111,-9.535746,0.858321,1
0.293181,-10.165564,-0.479385,1
0.812113,-9.149323,2.327883,1
0.844827,-10.402697,0.032431,1
0.968095,-9.026859,1.665526,1
0.885637,-9.644714,1.260221,1
0.787692,-10.677661,0.089543,1
0.909579,-9.044859,1.735905,1
0.997664,-9.702143,1.029986,1
0.988087,-10.298899,0.216196,1
1.067161,-9.242925,1.63807,1
0.880947,-9.466195,0.588974,1
1.363171,-10.528394,0.895867,1
0.85868,-9.210015,1.5524,1
1.043763,-9.688788,0.359239,1
1.509903,-9.810362,1.247978,1
0.951695,-9.71295,1.39854,1
1.239718,-10.548494,-0.060334,1
1.385046,-8.925475,1.467319,1
1.498291,-9.935219,1.547612,1
1.368395,-10.451125,-0.081947,1
1.817558,-8.718246,1.873822,1
1.695312,-9.546009,1.265336,1
1.565209,-10.449135,0.125097,1
1.589968,-9.205814,1.530657,1
1.397735,-9.354265,0.562039,1
1.945507,-10.160013,0.946363,1
1.528915,-9.217785,1.660488,1
1.465371,-9.837296,0.192853,1
1.830911,-9.345984,1.365892,1
1.988384,-9.989567,1.602439,1
1.657005,-9.954003,-0.117425,1
2.715623,-9.008662,1.497573,1
1.926244,-10.026917,0.035151,1
1.933917,-9.202354,2.112883,1
1.823294,-9.878694,0.210363,1
1.852992,-9.135077,1.308072,1
1.878034,-9.940072,1.472216,1
1.850598,-10.230543,-0.026217,1
1.939412,-8.912199,1.686715,1
2.075414,-9.326134,1.014423,1
2.054552,-10.253386,0.49005,1
1.842882,-9.290264,1.627948,1
2.037346,-9.366357,0.660321,1
2.617407,-9.722528,1.175444,1
1.689349,-9.369589,1.703834,1
2.177744,-9.566033,0.409735,1
2.455972,-9.393292,1.385884,1
1.980658,-9.714146,1.480161,1
2.355655,-10.280942,-0.086431,1
2.204733,-8.704011,1.778457,1
2.314714,-9.476489,1.252048,1
2.281674,-10.304209,0.287957,1
2.220502,-8.493192,1.922544,1
2.276886,-9.093613,0.614548,1
2.659,-9.536226,1.20548,1
2.512388,-9.530337,1.878795,1
2.400187,-10.015664,-0.038427,1
2.594227,-8.948874,2.020162,1
2.276766,-9.854296,0.344885,1
2.612836,-8.889235,1.605312,1
2.586576,-9.79851,1.8664,1
2.723285,-10.197742,-0.28084,1
2.59205,-8.643829,1.644055,1
2.441367,-9.076419,0.893516,1
2.962716,-9.820908,0.692577,1
2.658881,-9.440935,0.852216,1
2.892849,-9.674971,-0.317993,1
2.394561,-9.102036,2.856642,1
2.92245,-9.861825,0.015562,1
2.786851,-8.578066,1.947204,1
2.862486,-9.255222,1.065855,1
3.162262,-9.775286,0.613634,1
2.851494,-8.830033,1.869001,1
2.780147,-9.367792,0.592924,1
3.468872,-9.605646,1.230837,1
2.821349,-8.797494,1.951819,1
2.999576,-9.643844,0.420781,1
3.217589,-9.030384,1.384828,1
2.684499,-9.452188,1.784039,1
3.229669,-9.85116,0.027098,1
2.940678,-8.178233,1.759379,1
3.214542,-9.646674,1.558516,1
3.203202,-9.87668,-0.031963,1
2.982196,-8.354568,1.799351,1
3.084091,-8.887037,0.899861,1
3.722548,-10.022346,1.08022,1
3.017771,-8.710345,1.995328,1
3.15349,-9.025704,0.5104,1
3.550601,-9.121789,1.322677,1
2.748065,-8.789114,2.057697,1
3.375281,-9.594219,0.424753,1
3.374628,-8.566095,1.610939,1
3.488461,-9.513251,1.750597,1
3.557784,-9.556216,0.184234,1
3.061705,-8.340681,2.059612,1
3.39106,-8.963565,1.365239,1
3.57969,-9.326254,0.624887,1
3.495861,-9.279708,0.752432,1
3.173873,-9.730514,-0.280241,1
3.308787,-8.644591,2.18928,1
2.973,-9.37342,0.444005,1
3.64256,-8.812621,1.470802,1
3.281852,-9.283039,1.889504,1
3.696321,-9.535343,0.207316,1
3.428018,-8.348701,1.81672,1
3.613177,-9.433263,1.767791,1
3.86053,-9.799468,0.124618,1
3.20859,-8.1343,1.788229,1
3.736478,-9.583772,1.413667,1
3.674382,-9.711481,0.147483,1
3.279839,-8.397445,1.56287,1
3.431489,-8.962934,1.599087,1
3.624168,-9.998622,0.234523,1
3.151607,-8.300817,1.964682,1
3.624277,-8.910348,0.934827,1
3.973896,-9.500671,0.80122,1
3.238811,-8.949527,1.522603,1
3.924968,-9.044206,1.394078,1
3.944926,-9.403706,0.589333,1
3.133684,-8.785522,1.601286,1
3.426342,-8.839872,0.692762,1
4.035645,-9.276878,1.197645,1
3.198414,-9.214085,1.863527,1
3.816792,-9.329769,0.386228,1
3.53863,-8.542729,1.500947,1
3.672466,-9.600389,1.623029,1
3.578788,-9.557653,0.005986,1
3.306273,-8.490916,1.933558,1
3.812113,-9.075221,0.311246,1
3.788705,-9.293932,0.241695,1
3.281732,-9.061335,0.983778,1
3.865112,-8.639477,1.547199,1
3.618956,-9.271666,1.951993,1
3.999296,-9.362309,0.142673,1
3.471832,-8.3663,1.657745,1
3.889707,-8.893045,1.561564,1
3.846883,-9.854415,0.086431,1
3.565293,-7.979983,1.64917,1
3.85658,-8.698614,0.980186,1
3.871098,-9.590846,0.626737,1
3.689247,-8.345318,2.114951,1
3.261741,-8.662222,0.851857,1
4.345367,-9.627303,0.929821,1
3.498908,-8.43227,1.772797,1
3.709576,-9.198283,0.257377,1
4.124132,-9.174341,1.35021,1
3.624821,-9.06053,1.262615,1
3.562932,-9.48475,-0.005985,1
3.569755,-8.735462,1.101006,1
3.242946,-9.019676,1.351527,1
3.738981,-9.569297,0.164656,1
3.511815,-8.540716,1.419642,1
3.707639,-9.449914,1.480596,1
4.003823,-9.735782,-0.123541,1
3.527203,-8.031676,1.543825,1
3.835032,-8.954674,1.29251,1
3.740179,-10.040302,0.078029,1
3.505329,-7.937323,1.729593,1
3.796605,-8.998009,0.360806,1
3.793722,-8.850275,1.310608,1
4.552455,-8.895297,1.184771,1
4.25689,-9.432828,-0.057134,1
3.61309,-8.558073,1.533367,1
3.485414,-8.83787,0.497667,1
4.067858,-9.535562,0.802928,1
3.397372,-9.026979,1.667322,1
3.479134,-8.652765,0.644878,1
4.223916,-10.267859,0.796072,1
3.53851,-8.1094,1.718319,1
3.994965,-9.099402,1.070567,1
3.763902,-9.793919,0.209057,1
3.268684,-7.908886,1.508108,1
3.789259,-8.667555,0.84363,1
4.247673,-9.377849,0.577362,1
3.402813,-8.571133,1.434453,1
3.756143,-9.03871,0.312204,1
4.40174,-9.050082,1.12201,1
3.443341,-9.247484,1.513135,1
3.5247,-8.720445,0.320605,1
4.323809,-9.353428,1.488715,1
3.817228,-9.010469,1.379278,1
3.694492,-9.351871,0.090381,1
3.920396,-8.5473,1.199277,1
3.534919,-9.023386,1.650922,1
3.948996,-9.386947,0.281199,1
3.80036,-8.463939,1.334876,1
3.491943,-9.139626,1.463575,1
4.005739,-9.433633,0.120787,1
3.82082,-8.450553,1.506388,1
3.997664,-9.154774,1.723825,1
3.97641,-9.47218,-0.336266,1
4.07602,-8.665704,0.749276,1
4.04237,-9.535746,-0.089184,1
3.5062,-8.405607,1.939195,1
3.521512,-8.605719,0.849104,1
4.144907,-9.881524,0.635661,1
3.364724,-8.226586,1.512265,1
3.85658,-8.871475,0.932542,1
4.035536,-9.820145,0.655032,1
3.536834,-8.540596,1.580413,1
4.024435,-8.914484,0.987826,1
4.185783,-9.444407,0.434188,1
3.500867,-8.512585,0.817946,1
4.108809,-9.445963,1.360026,1
4.013879,-9.582248,-0.289372,1
3.712329,-8.245871,1.642303,1
3.979163,-9.290809,1.385699,1
3.975692,-9.512282,-0.005985,1
3.540665,-8.176199,1.771709,1
4.024871,-8.86105,1.212445,1
4.141251,-9.964547,-0.131561,1
3.595253,-8.150342,1.593461,1
4.036407,-8.840699,1.014706,1
4.180037,-9.788095,0.116717,1
3.580311,-8.590178,1.55634,1
3.787519,-8.672126,0.406905,1
4.440047,-9.832747,0.560722,1
3.484282,-8.437885,1.505474,1
3.638534,-8.740685,0.330617,1
4.097437,-9.020155,1.182616,1
3.381212,-9.135077,1.908897,1
3.264276,-9.70827,-0.879869,1
2.676173,-8.92123,2.059775,1
4.189853,-9.515875,-0.866821,1
3.222476,-8.453328,1.803193,1
3.71678,-8.77834,1.334876,1
3.695886,-10.129759,-0.277619,1
3.241749,-8.244432,1.158467,1
3.85658,-9.234436,1.158195,1
3.922029,-9.807521,-0.153447,1
3.487155,-8.408196,1.606509,1
3.863697,-8.93429,1.11548,1
4.047518,-9.261492,0.438378,1
3.675578,-8.255807,1.639549,1
3.629066,-8.779101,0.474161,1
4.195294,-9.886856,0.61433,1
3.364724,-8.679852,1.488541,1
3.623146,-8.964729,0.097324,1
4.51492,-9.215282,1.060305,1
3.474748,-8.820129,1.410511,1
3.782359,-9.011775,0.192853,1
4.225766,-9.248801,0.8297,1
3.224445,-8.768437,1.240632,1
3.966757,-8.887604,0.608563,1
4.200747,-9.442372,0.593762,1
3.637881,-9.151727,1.312784,1
3.862065,-8.871932,0.113942,1
3.778769,-8.91924,1.009635,1
3.823976,-9.085886,1.399955,1
4.072896,-9.796834,-0.29305,1
3.601206,-8.03603,1.750379,1
4.157052,-8.855913,0.345842,1
4.010886,-9.019077,0.473214,1
4.211836,-8.995233,1.771383,1
4.434278,-9.446105,0.079553,1
4.287536,-7.983705,1.975695,1
3.744205,-8.83776,0.159214,1
4.378342,-8.936141,1.179144,1
4.689403,-8.897332,2.108813,1
4.518577,-9.865548,-0.420901,1
4.162755,-7.947988,2.03703,1
4.526129,-8.436079,1.164888,1
4.402818,-8.663059,0.872088,1
3.714387,-8.957145,1.49605,1
4.181909,-9.047581,0.296228,1
4.104859,-8.250658,1.71772,1
4.195839,-9.055198,1.814914,1
4.518098,-8.992023,0.129526,1
4.14556,-7.764636,2.191413,1
3.97764,-8.525317,0.190666,1
4.378276,-9.231443,1.656668,1
4.01771,-9.347681,1.862569,1
3.997446,-9.547641,-0.093592,1
3.438552,-8.252335,1.499249,1
3.949127,-9.170881,1.497682,1
3.916588,-9.714691,-0.270109,1
3.49326,-8.227076,1.623867,1
3.813637,-9.114399,1.289822,1
4.200986,-9.560647,0.062848,1
3.601968,-8.444676,1.588335,1
3.607583,-8.665094,0.721612,1
4.31926,-9.574892,0.409049,1
3.411411,-8.426827,1.75027,1
3.960989,-8.96585,0.210581,1
4.030094,-9.403228,0.688333,1
3.78236,-8.796776,1.233134,1
4.245039,-9.669462,-0.034117,1
3.606027,-8.197986,1.812171,1
3.555172,-8.619018,0.292746,1
4.403154,-9.79457,0.925577,1
3.515167,-8.513543,1.689588,1
3.632874,-8.701074,0.410279,1
4.472587,-9.43174,1.005021,1
3.328778,-8.996452,1.730649,1
4.043807,-9.023419,0.338888,1
3.896683,-8.509112,1.563653,1
4.033033,-9.322042,1.374816,1
4.281312,-9.630197,0.038786,1
3.787083,-8.162487,1.591165,1
4.002017,-9.124955,1.457198,1
4.315907,-9.588419,0.324414,1
3.737947,-8.073487,1.594179,1
3.767277,-9.003722,1.252167,1
3.804386,-8.893806,0.814029,1
4.060686,-8.997889,1.266772,1
3.34865,-8.85292,1.562576,1
3.648045,-8.75416,0.50781,1
4.289321,-9.540132,0.915565,1
3.497711,-8.719247,1.644925,1
3.703721,-8.675716,0.460557,1
4.391325,-9.250956,1.123479,1
3.518998,-8.735245,1.776857,1
4.207592,-9.156951,0.259771,1
4.05482,-8.371566,1.689947,1
4.066878,-9.181328,0.510944,1
4.045875,-9.056176,-0.631416,1
3.370317,-8.997171,1.269885,1
3.553104,-8.816321,1.268274,1
4.304655,-9.405143,1.452083,1
4.617457,-9.688616,-0.182917,1
3.766798,-7.938455,1.645415,1
4.129345,-9.250433,1.378407,1
4.242634,-9.425537,-0.057461,1
3.7905,-8.156446,1.533007,1
4.021606,-9.122779,1.330414,1
4.502775,-9.661681,-0.120668,1
3.864362,-8.044638,1.575864,1
4.49248,-9.289622,1.61848,1
4.313263,-9.406709,0.001197,1
3.784993,-8.226598,1.328064,1
3.915173,-9.240966,1.228443,1
4.194402,-9.67054,-0.226491,1
3.739635,-8.150625,1.383196,1
3.867115,-8.55975,0.651821,1
4.083431,-9.666349,-0.211408,1
3.539349,-8.117063,1.269765,1
4.35527,-9.493119,1.271539,1
4.151306,-9.458414,-0.258933,1
3.765426,-8.409415,1.587138,1
3.944121,-8.877265,1.265989,1
4.131304,-10.177644,-0.377631,1
3.575141,-7.999626,1.410065,1
3.951739,-8.838958,0.950172,1
4.14001,-10.00624,-0.157364,1
3.371874,-8.367376,1.732804,1
3.32054,-9.182633,0.000435,1
3.826772,-8.847532,1.208114,1
4.077805,-8.619963,1.187404,1
4.196056,-9.515754,0.550993,1
3.63331,-8.695957,1.410294,1
3.72849,-8.690474,0.122344,1
4.212957,-9.675089,0.251391,1
3.466325,-7.691373,1.409706,1
4.196709,-8.789441,1.18143,1
4.41826,-9.646119,-0.014605,1
3.841497,-8.13985,1.419544,1
4.166629,-8.933364,0.811515,1
4.312675,-9.52988,-0.085952,1
3.504513,-8.019857,1.275391,1
4.215645,-9.066733,1.303099,1
4.222294,-9.517671,-0.192733,1
3.623951,-8.236381,1.248359,1
4.346129,-9.268826,1.39952,1
4.564872,-9.424992,-0.111548,1
3.886388,-8.063192,1.569279,1
4.046441,-9.518867,1.367808,1
4.311739,-9.302779,-0.076288,1
3.907936,-8.227314,1.27156,1
3.628173,-8.868483,1.429578,1
4.242286,-9.197805,0.010535,1
4.212053,-8.193502,1.326388,1
3.956091,-9.081425,1.271539,1
4.33147,-9.302073,-0.08655,1
3.888945,-8.130817,1.452627,1
4.402458,-9.168356,0.00826,1
4.201465,-8.952878,-0.420422,1
4.197362,-8.844291,1.819267,1
4.146278,-9.202353,0.052792,1
3.774938,-8.13454,1.6848,1
3.887313,-8.570698,0.526942,1
4.533301,-9.376172,0.506733,1
3.758026,-8.94735,1.227028,1
4.036189,-8.656562,0.602468,1
4.417302,-9.487024,0.286466,1
3.850747,-8.55481,1.37721,1
4.062525,-8.665486,0.050822,1
4.865616,-9.364441,0.876158,1
4.007349,-8.891194,1.317137,1
4.32297,-9.056547,-0.050877,1
4.965096,-9.37306,1.048062,1
3.941074,-8.627615,1.464598,1
4.002148,-8.998847,0.07853,1
4.865377,-9.615234,0.611359,1
3.892972,-8.879659,1.110365,1
3.866636,-8.596621,0.121865,1
4.688173,-10.003301,0.658841,1
3.641907,-8.203405,1.094912,1
4.374315,-9.42249,1.171309,1
4.195719,-9.303867,-0.314598,1
3.73354,-8.073574,1.409205,1
4.199191,-8.827303,0.674327,1
4.318781,-9.554541,-0.307894,1
3.771412,-8.290902,1.178383,1
3.710414,-8.933724,0.231878,1
4.220216,-9.024942,0.792046,1
3.269283,-8.806711,1.542105,1
4.40359,-9.225513,0.296337,1
3.456466,-8.763105,1.828517,1
4.185783,-9.29022,-0.158376,1
4.273051,-8.403288,1.191834,1
3.886551,-9.224642,1.151611,1
4.089776,-9.469427,-0.230681,1
3.792089,-8.297433,0.936786,1
4.101159,-9.423361,1.112107,1
4.34811,-9.314402,0.004669,1
3.91082,-8.23725,1.031248,1
4.036385,-8.963892,1.368406,1
4.460158,-9.329246,-0.136948,1
4.242286,-8.522639,1.248456,1
4.364848,-9.495513,1.075867,1
4.715859,-9.375814,-0.118513,1
3.954242,-8.035485,1.265227,1
4.260482,-9.359696,0.912082,1
4.13778,-9.029612,-0.153588,1
4.390204,-8.999261,0.778769,1
3.751594,-8.713817,1.397256,1
3.939877,-9.180131,-0.194801,1
3.94313,-8.772355,0.982939,1
3.981438,-9.280883,1.324233,1
4.323276,-9.318886,-0.019807,1
3.827969,-8.243834,1.325909,1
4.003649,-9.007313,1.215057,1
4.48422,-9.694601,-0.298437,1
3.659896,-7.960721,1.502242,1
4.507846,-9.197869,1.291237,1
4.120541,-9.270707,-0.37182,1
4.462248,-8.52412,1.027004,1
4.148433,-9.3982,-0.427126,1
4.214448,-8.227239,2.390828,1
4.535924,-9.291027,-0.180871,1
4.232709,-7.860763,1.82917,1
4.599806,-8.824592,1.216254,1
4.485058,-9.472898,-0.287544,1
3.981992,-7.905871,1.220825,1
4.23284,-9.00666,1.177838,1
4.372171,-9.619663,-0.526245,1
3.870227,-8.004687,1.240958,1
4.441963,-8.777143,0.630274,1
4.512352,-9.812876,-0.334829,1
4.072102,-8.249766,1.218975,1
4.464534,-8.920142,1.070535,1
4.577953,-9.553823,-0.134794,1
4.095935,-7.989125,1.597694,1
4.11264,-8.466376,0.424731,1
4.972866,-9.519782,0.806411,1
4.079241,-8.662702,1.451964,1
4.186697,-8.526731,0.011971,1
5.008996,-9.591607,0.775721,1
4.132033,-8.463743,1.463575,1
4.107253,-8.459552,0.298318,1
5.084958,-9.440228,0.71086,1
4.017949,-8.389044,1.487158,1
4.12336,-8.500939,0.256615,1
4.823119,-8.81138,1.177947,1
4.188221,-8.967047,1.489193,1
4.517097,-8.779864,0.17075,1
4.506725,-8.279868,1.514333,1
4.966771,-8.904145,0.705201,1
4.738963,-8.649532,-0.366911,1
3.853228,-8.83628,1.89537,1
4.296177,-8.927978,0.041028,1
4.399944,-8.388924,1.229303,1
4.391401,-9.187531,1.142796,1
4.310042,-8.932528,-0.194888,1
4.672829,-9.022657,0.886834,1
3.868671,-8.876741,1.491827,1
4.136941,-8.653244,0.160172,1
4.893095,-9.67312,0.63849,1
3.811786,-8.216465,1.306037,1
4.469136,-8.71226,0.713472,1
4.662827,-9.69089,-0.143892,1
4.043371,-7.90043,1.683886,1
4.426161,-8.689875,0.615549,1
4.557145,-9.686831,0.379155,1
3.676297,-7.950067,1.227986,1
4.289865,-8.851473,0.811417,1
4.541256,-9.937461,-0.316905,1
3.820667,-7.844482,1.620396,1
4.547427,-9.776842,1.215536,1
4.5196,-9.49203,-0.61248,1
3.915477,-8.01866,1.62674,1
4.321208,-8.803153,0.958987,1
4.617098,-9.622537,-0.030287,1
3.837579,-7.953973,1.381019,1
4.519774,-8.803959,0.717303,1
4.395754,-9.211572,-0.147004,1
4.198341,-8.175873,1.405397,1
5.026267,-8.853399,-0.058538,1
4.257653,-8.952138,0.187945,1
4.260363,-8.912893,0.366552,1
4.63463,-8.474385,1.254453,1
4.546589,-9.162283,1.022759,1
4.652053,-8.990706,0.026576,1
4.423832,-8.576356,1.053558,1
4.133349,-8.989748,1.252287,1
4.438524,-8.979671,-0.146482,1
4.441723,-8.669523,1.009036,1
4.405223,-8.991207,0.820232,1
4.968448,-9.234556,-0.246722,1
4.360081,-8.275079,1.723586,1
4.491414,-9.128873,0.894452,1
4.597585,-9.16285,-0.140779,1
4.493917,-8.1121,1.078806,1
4.193989,-8.936357,1.018842,1
4.717057,-9.211811,-0.092177,1
4.634739,-8.384059,0.931127,1
4.419936,-9.041342,1.037048,1
4.315331,-8.822959,-0.129505,1
4.521929,-8.424836,0.866821,1
4.121499,-8.570883,1.292629,1
4.865997,-9.030167,-0.090544,1
4.342603,-8.199183,1.178067,1
4.396473,-8.639596,1.046386,1
4.770882,-9.163046,-0.599421,1
4.328477,-8.113111,1.050456,1
4.808754,-9.128872,1.305711,1
4.669412,-9.210853,-0.968095,1
4.901584,-7.983792,0.339977,1
4.383543,-9.139626,-0.605853,1
3.925892,-8.307759,2.042853,1
4.289865,-8.773553,-0.137775,1
4.354215,-8.610746,0.654455,1
4.410663,-9.188729,0.941901,1
4.486974,-9.107424,-0.24361,1
4.297592,-8.075751,1.029071,1
4.77703,-9.254547,0.967856,1
4.777303,-9.135404,-0.496797,1
4.901475,-7.472304,1.265227,1
4.899973,-8.872433,1.82929,1
4.998767,-9.083711,-0.007291,1
4.395635,-7.477571,2.262401,1
4.58359,-8.385474,0.356627,1
5.187038,-8.337927,1.465371,1
5.034897,-8.694979,1.780089,1
4.867053,-9.067679,0.694678,1
2.907976,-8.300589,1.777042,1
2.830664,-9.67018,2.11001,1
3.216719,-9.47342,0.299819,1
3.873383,-8.67909,1.540778,1
3.076549,-9.279207,1.30089,1
3.566272,-9.030168,0.423883,1
3.983114,-8.977777,1.200333,1
3.385401,-8.566335,1.955225,1
3.431653,-8.687143,0.631852,1
3.872861,-8.963891,1.431972,1
3.816793,-9.026032,1.796848,1
4.013999,-9.640493,0.118154,1
3.784036,-8.25412,1.742326,1
4.380312,-9.032485,0.482073,1
3.825281,-9.198631,-0.444886,1
3.280415,-8.784804,1.324712,1
4.226637,-9.168812,1.07935,1
3.601859,-8.811423,1.790645,1
3.76979,-9.285791,0.271263,1
4.040324,-8.476453,1.46079,1
3.483084,-9.032366,1.700003,1
4.216516,-9.313335,0.116119,1
3.961098,-8.326706,1.469387,1
3.690423,-8.917204,1.652598,1
4.423941,-9.47353,-0.073241,1
3.891775,-8.20421,1.369244,1
3.7503,-8.90556,1.481793,1
4.472488,-9.69089,-0.074579,1
3.869247,-8.292644,1.397017,1
4.052948,-9.112766,1.489411,1
4.186262,-9.405742,-0.141497,1
3.702198,-7.982921,1.637416,1
4.318542,-9.326493,1.546056,1
4.286274,-9.485065,-0.18098,1
3.892014,-7.850469,1.868435,1
4.212837,-8.943063,1.07368,1
4.13914,-9.596505,0.425188,1
3.633201,-8.165784,1.868435,1
3.936829,-8.600951,0.651985,1
4.402936,-9.377608,0.531752,1
3.642995,-8.859308,1.533486,1
4.156813,-9.150997,0.007422,1
4.408204,-8.879615,1.715565,1
4.422744,-9.257181,1.512374,1
4.309443,-9.289024,-0.028611,1
4.613267,-8.227674,1.963245,1
4.268209,-9.227253,0.166832,1
3.836588,-8.335294,1.363857,1
4.040432,-9.074786,1.084247,1
4.220869,-9.321715,0.015998,1
3.692218,-8.005252,1.351766,1
4.005608,-8.899901,1.488323,1
4.561792,-9.62086,-0.144969,1
3.788171,-7.954735,1.585506,1
4.350384,-9.42238,1.431733,1
4.233602,-9.353276,-0.11971,1
3.656665,-7.90278,1.762492,1
4.025959,-9.268934,1.416932,1
4.45093,-9.22671,-0.059964,1
3.727173,-7.887817,1.772667,1
4.054907,-9.117664,1.330523,1
4.294599,-9.599911,-0.064763,1
3.648328,-8.044953,1.376013,1
4.00452,-9.22105,1.627295,1
4.535815,-9.462604,-0.372657,1
3.656054,-8.281979,1.426073,1
4.19512,-9.156626,1.580891,1
4.358535,-9.569734,-0.073894,1
3.75019,-8.093163,1.562434,1
4.349546,-9.199959,1.474948,1
4.445271,-9.470699,-0.13081,1
3.897281,-8.073008,1.703474,1
4.164279,-8.91481,1.244985,1
4.469017,-9.158659,0.12402,1
3.98319,-8.986745,0.215696,1
4.240969,-9.307219,-0.384389,1
3.590541,-8.306574,2.388978,1
4.173692,-8.923309,0.40055,1
4.515574,-8.805112,1.130607,1
3.682163,-8.897452,1.532768,1
4.087142,-8.928576,0.041899,1
4.385742,-9.000348,0.943642,1
3.507266,-8.751406,1.535282,1
4.156225,-8.804677,0.31364,1
4.230434,-8.476671,1.359428,1
3.640982,-8.826225,1.469202,1
4.020082,-8.642741,0.294487,1
4.63733,-8.613379,1.348055,1
3.82785,-8.84059,1.78787,1
4.044677,-8.436515,0.21254,1
4.662469,-9.152674,1.20177,1
3.942815,-9.209515,1.195033,1
4.350863,-8.937914,-0.128569,1
4.485646,-8.86932,0.898479,1
3.559579,-8.791509,1.505953,1
4.084617,-8.843963,0.099251,1
4.56879,-9.111243,0.897499,1
3.788106,-8.698973,1.611178,1
4.007349,-8.586043,0.130484,1
4.96688,-9.70185,0.831332,1
3.788106,-8.836161,1.640148,1
4.076672,-8.639042,0.186095,1
4.065354,-8.469728,1.594059,1
4.288733,-9.008902,1.169089,1
5.034353,-9.058027,0.257594,1
4.480868,-8.121611,2.243367,1
3.980034,-8.843419,0.387643,1
4.390008,-8.866567,0.921169,1
3.624277,-9.318668,1.424876,1
3.884701,-8.716963,-0.138755,1
4.662468,-9.302671,1.105044,1
3.932041,-9.021352,1.306472,1
4.075258,-8.535982,0.039613,1
4.812825,-9.199719,1.149097,1
3.821908,-8.785415,1.179036,1
3.943729,-8.929175,-0.003112,1
4.502731,-9.052258,0.868551,1
3.751475,-8.805156,1.637873,1
4.149271,-8.857229,0.081642,1
4.436097,-8.683411,1.128148,1
3.606865,-8.674911,1.526783,1
3.904725,-8.762561,0.019262,1
4.526837,-8.834485,1.092953,1
3.523286,-9.014823,1.165976,1
4.415017,-8.584411,0.432806,1
4.450582,-9.541492,0.528041,1
3.692403,-8.663201,1.388202,1
3.993528,-8.744582,0.162566,1
4.665538,-9.210384,0.97814,1
3.544017,-8.781693,1.405875,1
3.939768,-8.465461,0.159867,1
4.749737,-9.183679,0.907163,1
3.832638,-8.911219,1.725262,1
4.723324,-8.774531,-0.207751,1
4.060686,-9.105629,0.159095,1
3.420117,-8.835203,0.986291,1
4.000276,-8.57505,1.566787,1
4.253539,-9.085636,1.746211,1
4.626468,-9.231606,-0.008271,1
3.983473,-8.18003,1.27611,1
4.172223,-9.031692,1.224416,1
4.345476,-8.960952,-0.038743,1
4.479552,-8.659708,1.261505,1
4.436782,-9.012536,1.270124,1
4.775475,-9.362525,-0.009457,1
3.824846,-8.159984,1.011659,1
4.119768,-8.904799,1.209398,1
4.462313,-9.180806,-0.100916,1
4.24677,-8.271206,1.217234,1
4.09735,-8.971618,1.102203,1
4.815218,-9.354744,-0.012689,1
4.187459,-8.32638,1.080764,1
4.441962,-9.421423,0.988566,1
4.367459,-8.727954,0.126349,1
4.763046,-8.90469,0.958769,1
3.981677,-8.865489,1.397974,1
4.163397,-8.990108,-0.204824,1
4.790145,-8.836781,1.075976,1
3.951391,-8.761461,1.38325,1
4.263203,-8.536852,0.03058,1
4.842512,-8.926302,1.216374,1
4.274956,-8.930808,1.202216,1
4.753328,-9.487863,-0.287304,1
3.953306,-8.590275,1.278145,1
3.659102,-8.781605,1.010571,1
3.820428,-8.862738,0.448793,1
4.505561,-9.228886,1.478311,1
4.751294,-9.373898,-0.303585,1
3.858735,-8.056369,1.366132,1
4.426008,-9.143348,0.997512,1
4.939717,-9.67856,-0.263602,1
3.657796,-8.015351,1.180668,1
4.641998,-9.391854,1.303044,1
4.842382,-9.249237,-0.402444,1
3.926382,-7.925896,1.152264,1
4.413112,-9.045533,1.460942,1
4.893422,-9.215391,-0.403532,1
3.98862,-8.042243,1.508946,1
4.494461,-9.050518,1.249338,1
4.728548,-9.255331,-0.295357,1
3.883276,-7.776607,1.096544,1
4.408922,-8.991425,0.988588,1
4.475003,-9.440817,-0.347638,1
4.0955,-8.28753,1.156291,1
4.343517,-8.956709,1.023304,1
4.328238,-9.039787,-0.230801,1
4.564763,-8.535982,0.945166,1
4.155899,-9.00209,1.006218,1
4.401141,-8.935041,-0.472137,1
4.918169,-9.152914,0.614232,1
4.028897,-8.880639,1.140946,1
4.371094,-8.65013,-0.217992,1
4.799068,-8.710649,0.876931,1
4.270418,-9.003395,1.134253,1
5.110641,-8.726756,-0.207534,1
4.342004,-8.943301,-0.185192,1
4.284424,-8.573158,0.446997,1
5.092031,-8.882488,0.936024,1
4.133231,-8.770201,1.442507,1
4.504909,-8.695523,-0.213737,1
4.553772,-8.513303,1.120846,1
4.414473,-9.055088,0.977378,1
4.259394,-8.453164,-0.178586,1
4.885488,-9.011415,0.837252,1
4.306211,-8.651926,1.307593,1
4.892225,-8.855063,-0.26445,1
4.229477,-8.296388,0.918535,1
4.753688,-8.918509,0.94288,1
5.318719,-9.404184,-0.28922,1
4.179623,-7.801071,1.207657,1
5.160593,-8.218206,0.810546,1
5.335479,-9.258378,-0.227928,1
4.606335,-8.480262,0.744597,1
4.857117,-8.654322,0.578439,1
4.973192,-9.237266,0.366966,1
4.414908,-8.004579,1.311696,1
4.311718,-8.54299,0.025259,1
5.316652,-9.052258,0.724137,1
4.332069,-8.718006,1.415213,1
4.523844,-8.755236,0.221943,1
4.582937,-8.101434,1.231817,1
4.163637,-9.143217,1.100495,1
4.217386,-8.766151,-0.050822,1
4.331351,-8.035898,1.445739,1
4.009211,-8.744822,2.500863,1
2.413899,-9.615441,0.417026,1
3.079597,-8.728715,1.92287,1
2.842157,-9.2822,2.045846,1
3.226513,-10.062286,-0.113507,1
3.229778,-8.014351,1.910453,1
3.358521,-9.282321,1.159229,1
3.855263,-9.595122,0.073622,1
3.451122,-8.221807,1.627938,1
3.911146,-9.121255,1.307887,1
4.293163,-9.84855,-0.197282,1
3.437203,-8.168908,1.502579,1
3.939333,-8.955946,1.474066,1
4.11695,-9.631514,0.016759,1
3.63233,-8.323551,1.504974,1
3.729568,-9.362047,1.719396,1
4.334702,-9.529793,0.171294,1
3.65032,-8.117063,1.711256,1
3.850747,-9.296358,1.149108,1
3.984714,-9.152381,0.030472,1
4.034829,-8.673834,1.155681,1
3.977313,-9.261098,1.381563,1
4.368461,-9.45985,0.006464,1
4.124012,-8.61338,1.393785,1
4.165802,-9.414001,1.188068,1
4.56263,-9.63319,-0.075298,1
3.956778,-8.256884,1.37068,1
4.137834,-9.141062,1.332917,1
4.425084,-9.666349,-0.32226,1
3.851509,-8.103176,1.503123,1
4.318661,-8.694781,1.101213,1
4.258207,-9.135675,-0.10738,1
4.127821,-8.942561,0.491791,1
4.08799,-9.37613,-0.403532,1
3.69557,-8.379586,2.404138,1
4.314569,-9.115161,0.25988,1
4.073016,-8.161354,1.398693,1
4.060022,-9.091654,1.288189,1
4.174073,-9.191776,-0.001197,1
4.033392,-8.539518,1.207635,1
3.822125,-9.082077,1.10438,1
4.211509,-8.998063,0.077703,1
4.089656,-8.428069,1.372357,1
4.408705,-9.249562,1.2538,1
4.537012,-9.276454,0.127731,1
4.028462,-7.995764,1.346847,1
3.775297,-8.961019,1.561498,1
4.07948,-9.003037,0.046807,1
4.648669,-8.797495,1.135504,1
3.913214,-8.840156,1.369592,1
3.852989,-8.839273,-0.133716,1
4.672393,-9.238244,1.082832,1
3.696887,-8.611344,1.397136,1
4.184194,-9.02995,0.502456,1
4.409162,-9.694362,0.30969,1
3.850355,-8.13011,1.244865,1
4.383783,-8.760602,0.797922,1
4.609317,-9.726443,0.00407,1
3.969151,-8.115799,1.194707,1
4.109288,-8.653004,0.244328,1
4.651694,-9.165123,0.07003,1
3.712427,-8.649707,1.320729,1
3.42349,-9.345222,-0.089565,1
3.688267,-8.832929,1.161068,1
4.182888,-8.557311,1.228334,1
4.257729,-9.466194,-0.060573,1
3.503152,-8.704011,1.2464,1
4.298354,-8.897832,0.617595,1
4.481946,-9.938331,-0.039983,1
3.617421,-8.297324,1.100245,1
4.509152,-9.474835,0.944621,1
4.352659,-9.538979,-0.184593,1
3.95076,-8.107203,1.256521,1
4.279756,-8.926783,0.742681,1
4.349611,-9.872382,-0.000326,1
3.599204,-8.218218,1.321001,1
4.392043,-9.061454,1.105642,1
4.489672,-9.687811,-0.188598,1
3.771347,-7.909964,1.387919,1
4.628829,-9.401552,1.089481,1
4.751729,-9.319648,-0.217764,1
3.92685,-8.036857,1.231577,1
4.429056,-9.421293,0.802058,1
4.452617,-9.638698,-0.622492,1
3.386119,-8.171769,1.222958,1
4.165476,-9.405513,1.032445,1
4.509479,-9.629719,-0.345004,1
3.585644,-8.056924,1.218431,1
4.512591,-9.556337,1.13138,1
4.42764,-9.250216,-0.308743,1
4.051109,-8.32033,1.564252,1
4.718645,-8.627506,-0.049299,1
4.36833,-9.145634,-0.535866,1
3.875614,-8.880572,1.932719,1
4.568573,-9.373408,0.087062,1
3.919428,-8.065586,1.540549,1
4.57927,-8.86561,0.626443,1
4.671631,-9.490724,0.521392,1
3.905781,-8.360193,1.31741,1
4.669128,-8.73111,0.596156,1
4.689164,-9.486665,0.041779,1
4.106274,-8.509429,1.186327,1
4.419576,-8.742547,-0.254982,1
5.00584,-9.06597,0.86126,1
3.670311,-8.538321,1.137246,1
4.38596,-8.800541,-0.232129,1
4.887654,-8.869972,0.787475,1
3.883276,-8.458116,1.642183,1
4.771426,-9.207012,-0.431392,1
4.055059,-8.177635,1.184651,1
4.799504,-9.206903,0.957463,1
4.585876,-9.363939,-0.727184,1
3.908654,-8.197746,1.038246,1
4.496528,-8.518134,0.320714,1
4.654807,-9.238984,-0.14844,1
3.719273,-8.822393,1.289517,1
3.561157,-9.452962,-0.819688,1
3.803189,-8.370967,2.069907,1
3.958921,-8.916878,0.188707,1
4.353137,-8.416098,1.360984,1
4.177642,-9.219473,1.245823,1
4.632998,-9.379394,-0.90577,1
3.850475,-8.264544,1.229183,1
4.444618,-8.582887,0.490267,1
4.742075,-9.492412,-0.277129,1
3.912017,-8.399839,0.935262,1
4.586311,-8.498872,0.139734,1
4.944625,-9.125978,0.221344,1
3.898087,-8.702271,0.998709,1
4.403057,-8.764574,-0.433111,1
4.677944,-8.605741,0.568079,1
4.046919,-9.354746,0.673728,1
4.276915,-8.706841,-0.556543,1
4.600219,-8.815331,0.985813,1
4.271801,-9.250216,0.899893,1
4.823,-9.284475,-0.637097,1
4.044024,-8.289814,0.907076,1
4.501698,-8.794142,1.004128,1
4.602309,-9.376129,-0.552516,1
4.446511,-8.106527,1.526782,1
4.680904,-8.840111,-0.514394,1
4.784486,-8.737095,0.113942,1
4.6657,-9.055349,-0.155623,1
4.462901,-8.063127,1.468951,1
4.973236,-8.917444,-0.242413,1
4.396625,-8.201011,0.572432,1
4.941154,-9.279806,0.957202,1
4.781547,-9.129745,-0.814029,1
4.351342,-7.878001,1.273476,1
4.204435,-8.486575,-0.275877,1
4.687129,-9.375454,0.025259,1
4.227616,-8.651666,1.057911,1
5.08325,-9.4061,-0.793199,1
4.008003,-8.008931,0.880413,1
4.636132,-8.677305,0.783862,1
4.652652,-9.494566,-0.759441,1
4.164061,-7.957347,0.839494,1
4.588248,-8.482178,0.106063,1
4.661728,-9.044314,-0.296881,1
3.9557,-8.502289,1.051055,1
4.966663,-9.090458,-0.635987,1
3.897162,-8.138491,0.897466,1
4.868283,-9.01689,0.819252,1
4.552934,-8.974666,-0.934457,1
4.477157,-8.647422,0.018065,1
4.51492,-9.073262,-0.746011,1
4.026209,-8.283699,1.832642,1
4.909855,-9.394739,-0.780292,1
4.058172,-8.152256,0.933195,1
4.716697,-8.729738,0.32226,1
4.544303,-9.072066,-0.328441,1
3.956179,-8.836999,1.13976,1
4.668802,-8.934399,-0.502782,1
4.295742,-8.598775,0.553278,1
3.730286,-8.995135,0.893516,1
4.56694,-9.181764,-0.658297,1
4.028364,-8.542392,0.595677,1
4.004063,-9.310692,0.781707,1
4.561172,-9.370906,-0.563182,1
3.597408,-8.302373,0.683185,1
4.508717,-9.183722,0.794657,1
4.789122,-9.33583,-0.821091,1
3.62937,-8.1343,1.073321,1
4.480531,-8.626744,0.439771,1
4.717416,-9.469907,-0.515113,1
4.432864,-8.289206,1.234211,1
4.911487,-9.068148,-0.796834,1
5.048174,-7.934743,-0.11983,1
4.944462,-8.634907,-0.007074,1
4.86011,-8.027638,1.381933,1
4.882375,-8.406402,0.169629,1
5.221863,-8.848099,-0.107195,1
4.806479,-8.289564,1.203446,1
4.917211,-8.747456,-0.33016,1
5.132843,-8.261302,0.685395,1
4.729745,-8.640314,1.037168,1
5.121198,-8.92714,-0.513436,1
4.686976,-7.93852,0.8371,1
5.091705,-8.483853,0.773001,1
5.635113,-9.254309,-0.49979,1
4.690133,-7.369788,1.006871,1
5.569392,-8.299978,0.39624,1
5.226422,-8.921393,-0.639372,1
5.042079,-8.116888,0.75733,1
4.985087,-8.63014,-0.488058,1
5.365884,-8.493909,0.476925,1
5.008561,-8.494082,0.457728,1
5.41057,-8.650794,-0.777245,1
4.761948,-8.696579,-0.631231,1
4.63931,-8.540662,0.204595,1
4.912902,-8.462904,0.568862,1
4.555448,-8.756433,1.021007,1
5.155913,-9.018631,-0.762662,1
4.47189,-7.84532,0.939604,1
5.175426,-9.04254,0.905487,1
5.599167,-8.999043,-1.002953,1
4.498705,-7.804988,0.82415,1
5.039914,-8.523956,0.615789,1
5.447027,-9.466783,-0.710425,1
4.495952,-8.198584,0.61926,1
5.039794,-8.468052,0.413718,1
5.083108,-9.528596,-0.781272,1
4.310162,-7.709689,0.794157,1
5.220318,-8.642948,0.570179,1
5.257667,-9.735585,-0.751562,1
4.725392,-7.743937,0.77496,1
4.840956,-8.333258,-0.416591,1
5.358115,-8.937338,0.352601,1
5.287703,-8.036682,0.818382,1
5.037042,-8.856751,-0.732745,1
4.671414,-8.377639,0.72392,1
5.340267,-9.054,-0.779639,1
4.402219,-7.901704,0.659962,1
5.181412,-9.045294,0.784939,1
5.304462,-9.084364,-0.987499,1
4.300422,-7.796066,0.626519,1
5.254075,-9.031288,0.877714,1
5.513607,-9.372461,-0.7847,1
4.265053,-7.775714,0.729905,1
5.122993,-8.974186,0.764947,1
5.519234,-9.381081,-0.870292,1
4.442441,-7.768096,0.860715,1
5.21011,-8.834603,0.570364,1
5.216748,-8.891086,-0.97999,1
4.257968,-7.791451,0.985573,1
5.2704,-8.551327,0.337365,1
5.098093,-8.709867,-0.788052,1
5.108029,-8.485921,0.227993,1
4.743022,-8.257603,0.735455,1
4.974553,-8.776304,1.058117,1
5.467279,-9.309374,-0.678517,1
4.352441,-7.914361,0.384378,1
4.940326,-8.744061,0.469155,1
5.351041,-9.316677,-0.824803,1
5.146696,-8.599614,0.304064,1
4.632998,-8.832645,0.447389,1
5.058349,-8.796057,-0.688932,1
4.842273,-8.124397,0.431283,1
4.412873,-8.834125,0.867898,1
5.061701,-8.942103,-0.811036,1
4.851251,-8.649292,0.244568,1
5.062104,-8.610528,0.975637,1
5.222516,-9.064339,-0.741767,1
4.523725,-8.013514,0.97025,1
5.167645,-8.711782,-0.252588,1
4.748137,-8.697155,-0.516386,1
4.754232,-8.618472,-0.229517,1
4.408683,-8.195711,1.262462,1
5.312973,-8.549815,0.271383,1
5.065478,-9.250216,-0.544354,1
4.408487,-7.971604,0.573085,1
5.19803,-8.847663,0.414197,1
5.088158,-9.255265,-0.869933,1
4.24764,-7.830127,0.578744,1
5.018126,-8.523598,0.438737,1
5.364927,-8.856032,-1.114022,1
4.221696,-7.904098,0.627879,1
5.170931,-8.918728,0.379372,1
5.015494,-9.142378,-1.131141,1
4.372171,-7.94492,0.551385,1
5.215225,-8.71152,0.427256,1
5.121523,-9.12463,-0.992941,1
4.374326,-8.041166,0.767222,1
5.133288,-8.525752,0.40893,1
4.86849,-8.926661,-1.137007,1
4.932055,-8.204604,-0.133422,1
5.416881,-8.730021,-0.832312,1
4.767814,-7.824132,1.051653,1
4.653131,-8.365558,-0.121778,1
5.281282,-8.950179,-0.017521,1
4.609317,-8.238568,0.706649,1
4.831859,-8.307161,-0.306458,1
5.111979,-9.025423,-0.456694,1
4.010832,-8.428351,0.460231,1
4.89723,-8.374266,0.238767,1
5.381926,-9.045533,-0.545998,1
4.378886,-8.371761,0.34988,1
4.869371,-8.406478,0.338127,1
5.162617,-8.952399,-0.583228,1
4.494275,-8.034821,0.71036,1
5.247437,-8.572765,0.169662,1
4.922914,-9.258595,-0.561332,1
4.320446,-7.943852,0.771695,1
4.72376,-8.29124,-0.292811,1
5.222831,-8.845499,-0.434548,1
4.932491,-8.650577,0.30722,1
5.167285,-8.638878,-0.761715,1
4.669053,-8.297705,1.312262,1
5.312734,-9.045294,-0.834597,1
4.251384,-7.812639,0.701621,1
5.09522,-8.875425,0.898664,1
5.286832,-9.056721,-0.982058,1
4.435585,-7.880733,0.430956,1
5.268919,-8.87375,1.233373,1
5.282153,-9.216588,-0.625866,1
4.705586,-7.580913,1.38091,1
5.039076,-8.471165,0.034716,1
5.580667,-7.760478,1.036798,1
5.162007,-8.219404,1.188286,1
5.171596,-9.457097,-0.163165,1
4.095641,-7.652586,1.327465,1
4.874485,-8.297868,0.921332,1
4.954082,-9.617148,-0.56994,1
4.477484,-7.699427,1.03756,1
5.187799,-8.690409,1.771056,1
3.378981,-9.773023,0.79716,1
3.078105,-8.423281,1.50296,1
3.531339,-9.510421,1.479508,1
3.305522,-9.645804,-0.106215,1
3.110667,-8.503965,1.53612,1
3.782719,-9.45554,1.301129,1
3.581834,-9.458185,-0.373387,1
3.917033,-8.502049,1.217093,1
3.527617,-8.837118,0.413239,1
3.873818,-10.258677,-0.082241,1
3.567796,-8.091531,1.316485,1
3.931715,-9.311268,1.369266,1
4.052296,-9.414001,-0.333229,1
3.583043,-8.253172,1.173877,1
3.810481,-9.484631,0.85005,1
3.597832,-9.071847,0.036566,1
4.164594,-8.98113,0.87939,1
3.311834,-8.910239,1.068032,1
3.515646,-8.81976,0.226013,1
4.021182,-10.401251,-0.163404,1
3.391746,-8.102937,1.35871,1
3.807107,-9.377,1.035601,1
4.151763,-9.449697,-0.539022,1
3.738546,-8.439887,1.053231,1
3.294302,-9.016085,0.865265,1
4.132153,-9.413881,-0.306937,1
4.152743,-8.982206,0.940083,1
3.699477,-9.250215,1.020365,1
4.09205,-9.323022,-0.190818,1
3.740613,-8.434991,1.373619,1
4.128801,-9.335972,0.23202,1
-2.310095,-10.313583,-0.430328,1
-0.806879,-9.384153,0.639198,1
-1.864674,-10.60662,-0.34742,1
-1.3577,-9.358843,0.612988,1
-1.65723,-9.974974,0.091608,1
-1.890344,-10.152321,0.132949,1
-1.313108,-10.333291,1.587403,1
-2.290458,-10.220089,-0.455609,1
-1.547917,-9.57323,0.622368,1
-2.575418,-9.980204,-0.328865,1
-1.480333,-9.678707,0.483847,1
-1.935435,-10.118069,0.805854,1
-1.969087,-10.606353,-0.454227,1
-0.904904,-9.547097,0.494107,1
-2.87722,-10.268438,-0.584048,1
-1.437033,-9.61981,0.398202,1
-2.635015,-10.172419,-0.402796,1
-2.441178,-10.509824,0.575404,1
-2.067713,-10.507592,0.43575,1
-1.803124,-9.913592,0.068326,1
-1.963034,-9.249372,1.183205,1
-2.121499,-10.77228,0.11891,1
-1.565763,-9.603207,0.615123,1
-0.857635,-9.973742,-0.046708,1
-1.650858,-9.693166,0.657146,1
-2.166717,-10.24935,0.956804,1
-2.251735,-10.228466,-0.2873,1
-0.650914,-9.654424,0.395535,1
-2.393346,-10.452924,-0.224973,1
-1.501819,-9.484537,0.545883,1
-2.15885,-10.823617,1.290897,1
-1.832948,-10.087807,-0.678485,1
-1.48211,-9.476637,0.736264,1
-2.083277,-9.81946,-0.079135,1
-1.474551,-9.742313,0.71434,1
-1.828942,-10.498029,0.969622,1
-1.764355,-10.401144,-0.412611,1
-0.753165,-9.499034,0.950438,1
-2.307595,-10.495526,-0.247568,1
-1.582091,-9.363628,0.89251,1
-2.301886,-10.164865,0.698572,1
-2.367522,-10.304152,-0.26236,1
-0.764803,-9.639895,0.568228,1
-2.148111,-10.350521,-0.221212,1
-1.510066,-9.316212,0.772134,1
-2.304555,-10.040233,0.668474,1
-2.442391,-10.388622,-0.363085,1
-0.799697,-9.494491,0.751791,1
-2.262709,-10.474339,-0.378613,1
-1.626242,-9.366643,0.83723,1
-2.540827,-10.241485,0.205161,1
-2.328549,-9.960319,-0.06956,1
-2.687899,-10.007195,0.189975,1
-2.387075,-10.296703,-0.718123,1
-1.493059,-9.351901,0.514261,1
-2.046055,-9.940378,0.03645,1
-1.595933,-9.687476,1.056045,1
-2.379391,-10.069579,0.360648,1
-2.481378,-10.244827,-0.072155,1
-0.949423,-9.469772,0.75491,1
-2.177457,-10.673533,-0.337021,1
-1.928052,-9.168636,0.782177,1
-2.611285,-9.975314,0.505052,1
-2.325891,-10.183643,-0.203901,1
-1.033319,-9.748116,1.232894,1
-2.116065,-10.732049,-0.428491,1
-1.787993,-9.06136,1.08604,1
-2.416815,-10.057879,-0.144124,1
-2.632083,-9.961516,0.070235,1
-2.128068,-10.234712,0.767456,1
-2.353041,-10.151101,-0.490763,1
-2.04867,-9.107074,0.889686,1
-2.622025,-9.987971,-0.42253,1
-2.544189,-9.883956,0.7258,1
-2.582535,-9.955531,0.631209,1
-2.501357,-9.957396,0.041945,1
-2.192014,-9.842536,0.586984,1
-1.383677,-10.631874,-0.127495,1
-2.184299,-9.108113,1.200231,1
-2.600546,-9.74513,-0.056969,1
-2.83386,-9.912966,0.160815,1
-3.55934,-10.037532,0.188741,1
-3.226707,-9.850185,-0.50158,1
-2.304408,-9.39788,0.91499,1
-2.900584,-9.959577,0.044525,1
-2.054946,-9.508411,0.870962,1
-2.956118,-9.877084,0.884089,1
-2.358344,-10.507524,-0.310577,1
-0.439791,-9.883704,0.338785,1
-2.378296,-10.238608,-0.145145,1
-2.441503,-9.06032,1.193421,1
-3.037863,-10.052065,0.758562,1
-2.471437,-9.634569,-0.288878,1
-0.598939,-9.713736,1.312766,1
-1.65039,-10.669499,-0.40194,1
-1.961239,-9.170832,0.489752,1
-2.63401,-10.118134,0.761627,1
-2.6879,-10.206322,-0.206915,1
-1.340127,-9.654176,0.806234,1
-2.059734,-10.57363,-0.401422,1
-1.71058,-9.258083,0.617243,1
-2.366121,-10.102619,0.461341,1
-2.22493,-10.377131,-0.334082,1
-0.663501,-9.601547,0.59227,1
-2.345774,-10.570972,-0.371827,1
-1.673736,-9.41916,0.791156,1
-2.548831,-10.124645,0.901804,1
-2.784216,-10.229715,0.068349,1
-1.981748,-9.617964,0.069924,1
-2.801205,-10.362278,-0.740933,1
-1.831734,-9.523224,0.454843,1
-2.688411,-9.931589,0.490549,1
-2.250007,-10.258396,-0.057323,1
-1.151151,-10.29483,1.089641,1
-1.70915,-10.181697,-0.565908,1
-1.955387,-9.259947,0.758301,1
-1.794182,-9.865852,0.041989,1
-2.330213,-9.933715,0.845226,1
-2.190042,-10.506828,0.894145,1
-1.868536,-10.087434,-0.405906,1
-1.427936,-9.537724,0.754597,1
-2.120986,-9.833823,0.088989,1
-2.002406,-9.829501,0.769874,1
-1.97819,-10.432129,0.920687,1
-2.060798,-10.221553,-0.33505,1
-2.027053,-9.512917,0.240004,1
-2.129764,-10.018509,-0.089513,1
-2.033598,-9.67501,0.597691,1
-2.384589,-10.436646,1.363271,1
-2.548361,-9.855302,-0.131015,1
-2.112807,-9.706135,-0.071755,1
-2.376039,-10.533576,-0.186052,1
-2.047231,-9.142365,0.845225,1
-2.606238,-9.784097,-0.190109,1
-2.203675,-9.844027,-0.352827,1
-1.433915,-10.1057,1.610638,1
-2.58618,-10.305577,-0.416031,1
-2.286269,-9.369623,0.977546,1
-3.122072,-10.17294,-0.860599,1
-1.983053,-9.673946,0.383542,1
-2.679554,-9.971074,1.238771,1
-2.924639,-10.06779,-0.243738,1
-1.15514,-9.604038,0.797501,1
-2.406427,-10.635616,-0.361852,1
-2.009322,-9.181869,0.701174,1
-2.177182,-10.175199,1.547897,1
-2.239965,-10.554014,-0.31889,1
-1.728305,-9.428205,0.77635,1
-2.545504,-10.444507,-0.079038,1
-1.917479,-9.278768,0.654886,1
-2.454726,-10.272376,1.042936,1
-2.023645,-10.119128,-0.573094,1
-1.350052,-9.618146,1.162856,1
-2.764856,-10.596167,-0.556127,1
-1.797599,-9.307127,0.610943,1
-2.45238,-10.205639,0.356611,1
-2.506452,-10.116873,-0.045751,1
-1.296117,-9.687123,0.851391,1
-2.1287,-10.68536,-0.523727,1
-1.916145,-9.180548,0.902494,1
-1.986512,-10.040058,-0.132739,1
-2.349233,-10.349507,0.276866,1
-0.986924,-9.711817,0.870544,1
-2.277739,-10.513245,-0.389652,1
-1.995703,-9.300288,1.192393,1
-2.634077,-10.115477,0.098699,1
-2.679168,-9.971889,0.098033,1
-2.533236,-9.934272,0.033599,1
-2.243621,-10.530271,-0.173176,1
-1.658119,-9.317387,0.419613,1
-2.124509,-9.767586,-0.04329,1
-2.408888,-10.273762,0.515624,1
-1.385113,-9.838025,0.960635,1
-2.449891,-10.719221,-0.375609,1
-1.523033,-9.416235,0.660606,1
-1.947065,-9.858409,-0.017636,1
-2.122382,-9.875524,0.814035,1
-2.111994,-10.538297,0.941071,1
-1.524797,-10.328496,-0.480673,1
-1.964783,-9.284415,0.772859,1
-2.092987,-9.72768,0.106614,1
-2.322098,-10.171673,1.042747,1
-2.522426,-10.260568,0.111515,1
-2.182435,-10.39786,-0.297274,1
-1.629595,-9.28093,0.346418,1
-2.427444,-9.932583,0.387999,1
-1.908259,-9.98162,0.798769,1
-2.400392,-10.22472,-0.078722,1
-2.238118,-10.745326,-0.409439,1
-1.795128,-9.315738,0.495996,1
-2.417627,-9.999805,0.31721,1
-2.503819,-10.005209,0.175405,1
-0.958877,-10.064518,1.443444,1
-2.434029,-10.411558,-0.545142,1
-2.360509,-9.392908,0.646035,1
-3.362931,-10.194274,-0.640517,1
-1.914087,-9.541863,0.522472,1
-2.601709,-9.738424,0.046872,1
-2.807789,-10.063932,0.400768,1
-1.352712,-9.881044,0.560181,1
-2.203518,-10.689197,-0.226411,1
-1.843857,-9.302979,0.514759,1
-1.699891,-9.998729,0.609345,1
-2.11938,-9.877631,0.790372,1
-2.038387,-10.220757,1.355951,1
-2.244452,-10.551394,-0.140668,1
-1.997925,-9.313748,0.581762,1
-2.174367,-10.038869,0.895452,1
-2.114268,-10.32397,-0.189804,1
-1.377387,-9.668825,0.828199,1
-2.269243,-10.675896,-0.293049,1
-2.152831,-9.335927,0.747961,1
-2.321221,-9.732117,-0.207244,1
-2.49609,-10.083329,0.758838,1
-2.161354,-10.0775,0.822015,1
-2.24408,-10.587281,-0.383616,1
-2.240031,-9.072069,0.899028,1
-2.359665,-10.091325,0.444387,1
-2.579614,-10.032573,0.336363,1
-1.565931,-9.727482,0.823411,1
-2.179302,-10.700282,-0.206915,1
-2.300351,-9.169964,1.006235,1
-2.854127,-10.012461,-0.264239,1
-2.694332,-9.880776,0.258778,1
-3.290909,-9.783885,-0.140885,1
-2.31199,-10.511516,-0.330263,1
-0.938849,-9.659909,0.714208,1
-2.158802,-10.624766,-0.088847,1
-1.962936,-9.080637,0.659307,1
-2.401374,-10.195548,0.546946,1
-2.349838,-10.355037,-0.204179,1
-1.154259,-9.795515,0.644577,1
-2.60488,-9.938836,-0.097558,1
-2.105287,-9.583196,1.005585,1
-2.498405,-9.968497,0.827667,1
-2.712047,-10.277874,-0.224974,1
-1.055498,-9.658249,0.677497,1
-2.430763,-10.381372,-0.221006,1
-2.107085,-9.370214,1.06968,1
-2.927897,-9.852512,0.415333,1
-2.459425,-10.62182,-0.530952,1
-1.25302,-9.445951,0.763278,1
-2.810415,-10.656088,-0.679324,1
-2.217684,-9.428802,0.581664,1
-2.601504,-9.507967,-0.090146,1
-2.936011,-10.29637,0.72538,1
-2.637178,-10.335455,0.720394,1
-2.003953,-10.676974,0.083691,1
-1.547176,-9.414104,1.384185,1
-2.488223,-9.963821,0.045639,1
-2.388722,-9.891832,0.44784,1
-3.767342,-10.101798,-0.244129,1
-2.612927,-9.685157,-0.315986,1
-2.552008,-9.60551,0.793151,1
-2.356679,-10.559775,-0.172029,1
-2.389377,-9.162042,0.810075,1
-2.374239,-9.809551,-0.075081,1
-2.369949,-10.16829,0.132857,1
-1.378384,-10.108292,0.912329,1
-2.126131,-10.901274,-0.55452,1
-2.288247,-9.058437,0.907474,1
-2.536176,-9.932836,0.003365,1
-2.325689,-10.11102,0.021087,1
-1.612019,-9.836285,0.964202,1
-1.969982,-10.726413,-0.372799,1
-1.787001,-9.42888,0.82454,1
-2.225743,-10.550657,0.984614,1
-2.453443,-10.060275,-0.216744,1
-1.570355,-9.548599,0.738249,1
-2.093233,-10.302553,-0.39824,1
-2.020945,-9.687057,0.86295,1
-2.815637,-10.434504,0.552266,1
-1.672073,-10.379663,-0.398725,1
-1.498598,-9.585199,0.411269,1
-2.289976,-9.675142,-0.183419,1
-2.051139,-9.753585,0.307201,1
-1.811644,-9.900498,0.549912,1
-2.946254,-10.264316,-0.755366,1
-2.619085,-9.520076,0.161313,1
-2.163349,-9.944292,-0.229572,1
-2.147321,-9.561283,0.58153,1
-2.76732,-10.274863,1.108597,1
-2.010386,-10.364803,-0.40129,1
-1.14097,-9.709146,0.361879,1
-2.275755,-9.947268,0.024842,1
-2.032574,-9.639648,0.792152,1
-2.513103,-10.397725,0.992867,1
-2.72252,-10.022818,-0.49138,1
-1.273173,-9.459396,0.683881,1
-2.483851,-10.622562,-0.178487,1
-2.367189,-9.094949,0.781913,1
-2.266862,-9.782207,-0.20801,1
-2.488429,-10.233524,0.63846,1
-2.17155,-10.025208,0.712857,1
-1.806613,-10.495423,-0.370365,1
-1.971348,-9.236072,0.802994,1
-2.216788,-9.791917,0.277808,1
-2.204317,-9.934448,1.166447,1
-2.881283,-10.597878,-0.177431,1
-1.539659,-10.311732,-0.338442,1
-2.064244,-9.24228,0.769646,1
-1.738906,-9.89966,-0.090489,1
-1.935846,-10.077309,0.418725,1
-2.510709,-10.14906,0.973448,1
-2.599693,-10.325367,-0.138193,1
-2.879164,-9.768936,-1.030247,1
-2.657802,-10.099336,-0.284144,1
-2.468385,-9.179138,1.029657,1
-2.896906,-10.049501,0.86052,1
-1.942705,-9.723308,-0.413763,1
-2.30148,-10.507725,1.114638,1
-2.155704,-10.007534,-0.301227,1
-1.125064,-9.65519,0.449117,1
-2.502247,-9.771259,-0.049582,1
-2.149317,-9.867674,0.930949,1
-2.918632,-10.308041,0.434253,1
-2.052219,-10.062271,-0.133539,1
-1.550724,-9.627471,0.77587,1
-2.380141,-9.908826,-0.43156,1
-2.260181,-9.72183,0.714274,1
-2.125879,-10.568941,0.884158,1
-1.999413,-10.420403,-0.341967,1
-2.156867,-9.090899,0.67162,1
-2.267341,-9.68726,-0.195354,1
-2.445471,-10.135454,0.789143,1
-1.984848,-10.156843,0.844228,1
-2.363383,-10.44451,-0.545319,1
-2.110146,-9.17349,0.723055,1
-2.20711,-9.790647,-0.341436,1
-1.958308,-9.871595,-0.295906,1
-2.451651,-10.028687,0.631942,1
-2.334721,-10.253113,-0.318964,1
-2.724656,-9.328317,0.395714,1
-3.422988,-10.050903,-0.956779,1
-2.453115,-9.458599,0.65023,1
-2.913434,-9.869903,0.820199,1
-2.395397,-10.343133,-0.438947,1
-1.507738,-9.739319,0.456697,1
-2.39567,-10.5333,-0.425267,1
-2.090658,-9.182468,0.831192,1
-2.906869,-10.057538,0.866509,1
-2.654586,-10.476115,-0.478759,1
-1.200075,-9.481222,0.662455,1
-2.333803,-10.283535,-0.048877,1
-2.096179,-9.445165,0.492945,1
-2.580957,-10.269064,1.112903,1
-2.16714,-10.511914,-0.506833,1
-1.616477,-9.30672,0.427528,1
-2.739137,-10.548488,-0.472672,1
-2.116396,-9.310889,0.564704,1
-2.576416,-10.130707,0.805188,1
-2.32966,-10.479125,-0.479032,1
-1.503182,-9.589711,0.547668,1
-3.037729,-10.180807,-0.252747,1
-1.849644,-9.51227,0.57847,1
-2.68154,-9.806149,0.249694,1
-2.746271,-9.886295,0.483434,1
-1.643071,-10.15351,0.966107,1
-1.963484,-10.52352,-0.435594,1
-2.566773,-9.023121,1.078459,1
-3.042378,-10.16514,-0.613723,1
-2.399312,-9.745239,-0.124628,1
-3.016589,-10.170478,0.502316,1
-2.062466,-10.302433,-0.267111,1
-1.697179,-9.540118,0.300382,1
-2.373774,-9.866545,0.066577,1
-2.155566,-9.679597,0.931699,1
-2.366058,-10.780396,1.113242,1
-2.233548,-9.904924,-0.618101,1
-1.521704,-9.604512,0.903616,1
-2.555466,-9.971963,-0.364181,1
-2.17171,-9.49627,0.941551,1
-2.083542,-10.188434,0.965731,1
-2.07047,-10.60971,-0.784944,1
-1.360893,-9.57332,0.639923,1
-2.447795,-9.940154,-0.052796,1
-2.579272,-9.456661,1.145946,1
-2.949977,-10.331817,0.715206,1
-2.342518,-10.211179,-0.489705,1
-1.417822,-9.57718,0.362659,1
-2.370268,-10.098301,-0.052229,1
-2.088598,-9.568998,0.883865,1
-2.713552,-10.567507,0.901532,1
-2.209107,-10.15671,-0.679217,1
-1.580753,-9.411309,0.532826,1
-2.214093,-9.748034,-0.039831,1
-2.018392,-9.854065,1.038281,1
-2.579819,-10.428778,0.560188,1
-2.797897,-10.021217,-0.384018,1
-2.917607,-9.520623,-0.517068,1
-2.735431,-10.237514,-0.469126,1
-1.690955,-9.41302,0.461272,1
-2.594173,-10.089868,0.955558,1
-2.263783,-10.395396,-0.430054,1
-1.438674,-9.74725,0.438699,1
-1.624973,-10.608934,-0.188553,1
-2.279004,-9.112904,0.659409,1
-2.816153,-10.049853,0.572234,1
-2.522147,-10.140615,-0.040697,1
-1.750218,-9.603978,0.682486,1
-2.093454,-10.680237,-0.334149,1
-2.195405,-9.16704,0.520613,1
-2.477894,-9.89152,0.238201,1
-2.448127,-10.121264,0.428567,1
-2.123277,-9.78508,0.525231,1
-1.775778,-10.752335,-0.294885,1
-2.203725,-9.035146,0.95099,1
-2.687879,-10.006673,0.529455,1
-2.580572,-10.066639,0.415987,1
-2.526338,-9.851446,0.236964,1
-2.309684,-10.552729,-0.446266,1
-2.992785,-8.933084,0.877316,1
-2.121652,-9.675007,-0.267082,1
-2.278149,-10.280339,0.463324,1
-2.380025,-10.263186,1.254698,1
-2.570254,-10.116819,-0.357701,1
-2.481645,-9.622203,-0.658732,1
-2.777663,-9.853909,-0.656072,1
-2.006653,-9.795753,0.655982,1
-2.503,-10.132102,0.512372,1
-2.593841,-10.360413,-0.333254,1
-1.077286,-9.536903,1.000242,1
-1.904244,-10.604785,-0.290097,1
-1.876055,-10.175275,0.243716,1
-2.454046,-10.024426,1.178217,1
-2.368718,-10.351373,-0.245866,1
-1.742327,-9.598603,0.484462,1
-1.878934,-10.207347,0.034831,1
-1.775367,-9.589575,0.480288,1
-2.132557,-10.131169,1.292674,1
-2.068419,-10.46893,-0.521582,1
-1.669612,-9.473164,0.632075,1
-2.596731,-10.28019,-0.326366,1
-1.669479,-9.401803,0.840104,1
-2.718273,-10.096654,0.725846,1
-2.716153,-10.271854,-0.445925,1
-1.411703,-9.726351,0.362793,1
-2.238886,-10.03223,-0.237493,1
-2.187359,-9.657317,0.772001,1
-2.558408,-10.662724,0.850365,1
-1.905545,-10.113358,-0.505505,1
-2.268429,-9.259482,0.438675,1
-2.415029,-9.998916,0.218365,1
-2.805528,-9.963776,0.752182,1
-3.292607,-10.026825,-0.321152,1
-3.085544,-10.185252,-0.752109,1
-1.964782,-9.366846,0.247777,1
-2.232847,-9.983793,-0.072619,1
-2.378844,-9.816408,0.877522,1
-2.480288,-10.448206,0.749878,1
-1.977781,-10.220686,-0.508447,1
-2.255326,-9.240795,0.691462,1
-2.265036,-9.976813,0.099164,1
-2.742761,-10.164321,0.315911,1
-1.375125,-9.770711,0.751252,1
-2.038114,-10.803641,-0.266495,1
-2.23584,-9.212928,0.406487,1
-2.704681,-10.053515,0.961857,1
-2.498538,-10.04651,0.104418,1
-2.318906,-9.628986,0.140132,1
-2.907757,-10.476799,-0.508447,1
-1.814726,-9.331371,0.536239,1
-2.301188,-9.89402,0.037765,1
-2.576349,-10.508124,0.481107,1
-2.072796,-9.701419,0.649252,1
-3.098418,-10.356824,-0.477905,1
-1.912715,-9.277248,0.775399,1
-2.817255,-10.009248,0.72224,1
-2.139249,-9.924479,-0.742913,1
-0.89389,-9.642988,1.116519,1
-2.599643,-10.628629,-0.132714,1
-2.44253,-9.097328,0.875401,1
-3.23848,-10.050564,-0.713002,1
-2.662317,-9.722833,0.011778,1
-2.953041,-10.068416,0.806927,1
-2.865415,-10.039753,-0.273335,1
-1.51286,-9.565276,0.076021,1
-2.226729,-9.86894,-0.14132,1
-2.144487,-9.638555,0.932793,1
-2.293952,-10.783051,1.240551,1
-1.970461,-10.037222,-0.638898,1
-2.304074,-9.206743,0.862449,1
-2.155102,-9.780553,-0.314899,1
-2.562512,-10.017044,0.660059,1
-1.342906,-10.578176,0.97028,1
-1.652578,-10.657936,-0.971144,1
-2.443671,-9.049725,0.58665,1
-2.006166,-9.844865,-0.145624,1
-2.547287,-10.30149,0.733496,1
-1.833375,-9.977094,0.690774,1
-2.018101,-10.51963,-0.293018,1
-2.102611,-9.078582,0.687228,1
-2.27488,-9.885766,-0.178096,1
-2.452653,-10.188672,0.548763,1
-1.822765,-10.466017,0.973655,1
-1.955912,-10.832829,-0.293436,1
-2.226766,-9.204231,1.018665,1
-2.835657,-10.014033,0.59699,1
-2.880462,-10.085517,0.061031,1
-2.408223,-10.123722,0.055404,1
-3.108527,-9.791373,-0.280315,1
-2.62483,-9.666055,-0.239135,1
-2.10775,-9.800106,0.151372,1
-1.841377,-10.009304,0.72024,1
-2.647063,-10.128068,0.897906,1
-2.424583,-10.306279,-0.363249,1
-1.579629,-9.447093,0.833386,1
-2.788867,-10.184092,-0.370268,1
-2.028127,-9.338665,0.750424,1
-2.653424,-10.102413,0.833674,1
-2.17685,-10.720807,-0.463273,1
-0.957235,-9.567275,0.606567,1
-2.142267,-10.008204,-0.236756,1
-2.078063,-9.666738,0.745772,1
-2.840308,-10.169247,0.587209,1
-2.391703,-10.36557,-0.254457,1
-1.357102,-9.717043,-0.440795,1
-1.814726,-10.064999,0.470532,1
-2.027333,-9.657417,0.966151,1
-2.854741,-10.03693,0.603079,1
-2.626062,-10.388489,-0.230515,1
-1.570052,-9.548649,0.292364,1
-2.079226,-10.59459,-0.44565,1
-1.882465,-9.407277,0.659689,1
-1.589715,-10.079636,0.359554,1
-2.080683,-10.371189,0.136008,1
-1.966835,-9.757442,0.576057,1
-2.930193,-10.328563,-0.695469,1
-2.350097,-9.452614,0.373368,1
-2.726003,-10.006713,-0.243991,1
-2.125978,-9.519108,0.908609,1
-2.580512,-9.906984,0.581958,1
-1.856285,-9.940192,-0.475961,1
-1.708922,-10.286489,1.407684,1
-1.850259,-11.006603,-0.244547,1
-1.066889,-9.515355,0.762396,1
-2.028879,-10.063695,0.124374,1
-1.549765,-9.53492,1.005714,1
-2.50552,-10.109623,0.99852,1
-2.590285,-10.21501,-0.408163,1
-0.78921,-9.61675,0.958416,1
-2.14127,-10.53173,-0.440999,1
-1.915284,-9.324191,0.576077,1
-2.687286,-9.982702,0.678118,1
-2.462299,-9.78371,0.217064,1
-2.449125,-9.930723,0.60075,1
-2.222193,-10.368307,-0.384771,1
-2.23165,-9.209204,0.721059,1
-2.221031,-9.859504,-0.354535,1
-2.119038,-9.954656,0.735716,1
-2.756047,-10.419871,0.556456,1
-2.132717,-10.061848,-0.418972,1
-1.850575,-9.399144,0.458828,1
-2.135919,-9.917892,-0.313901,1
-2.333338,-9.80948,1.017473,1
-2.841813,-10.349768,0.709996,1
-2.573889,-9.923873,-0.347153,1
-2.819786,-9.53355,0.018483,1
-3.000589,-10.186635,-0.775051,1
-1.964098,-9.396949,0.625024,1
-2.422281,-9.988656,0.443147,1
-2.22192,-10.080455,-0.086111,1
-1.821541,-9.953835,0.759386,1
-1.881632,-10.530934,-0.395571,1
-2.189358,-9.103895,0.77635,1
-2.106753,-9.759737,-0.244469,1
-2.437165,-10.103584,0.445272,1
-1.821045,-10.16509,0.584922,1
-1.770103,-10.607351,-0.425498,1
-1.92545,-9.346256,0.450875,1
-2.583308,-10.094478,1.138968,1
-2.731748,-10.36988,-0.39161,1
-1.467568,-9.62759,0.417128,1
-2.584881,-10.221851,-0.477187,1
-1.509001,-9.727947,0.569224,1
-2.750327,-10.294444,1.186732,1
-2.257902,-10.620724,-0.61304,1
-2.534945,-9.345914,-0.104102,1
-2.327019,-9.928394,-0.092372,1
-2.098312,-9.73227,0.854401,1
-2.804395,-10.257695,0.637077,1
-1.550435,-10.711168,-0.489276,1
-1.71257,-9.365617,0.991348,1
-3.016018,-9.812808,-0.595818,1
-2.525809,-10.021658,0.31531,1
-2.974121,-9.8988,-0.556382,1
-2.451627,-10.051929,0.173762,1
-1.676922,-9.788472,0.303234,1
-1.959245,-10.628567,-0.043489,1
-2.330891,-9.451327,0.659376,1
-2.421592,-10.169211,0.809313,1
-1.785076,-10.232349,-1.217287,1
-1.139696,-9.582566,0.724583,1
-2.674835,-10.068345,-0.471509,1
-2.027811,-9.522843,0.775462,1
-1.704661,-10.64612,1.511011,1
-2.269148,-10.161395,-0.884707,1
-1.354907,-9.511072,0.762624,1
-2.475159,-9.92921,-0.370814,1
-2.248343,-9.954198,1.094953,1
-2.681726,-10.483627,0.126632,1
-1.613481,-10.33694,-0.415987,1
-2.146258,-9.148617,0.881736,1
-2.070538,-9.66537,-0.162383,1
-2.510113,-10.198457,0.78189,1
-2.258106,-10.267135,0.475502,1
-1.552297,-10.569307,-0.325407,1
-2.435688,-9.098561,0.709243,1
-2.892319,-10.072977,0.687275,1
-3.220234,-10.070125,-0.177158,1
-2.358077,-9.642354,0.164939,1
-3.449393,-10.21747,-0.569465,1
-2.765131,-9.390105,0.22883,1
-2.583824,-9.680943,0.00071,1
-2.513944,-9.920935,0.550064,1
-2.478187,-10.552285,0.877678,1
-1.500514,-10.22021,-0.454612,1
-2.45644,-9.233876,0.648301,1
-2.430826,-9.734174,-0.420163,1
-2.541034,-10.03261,0.697251,1
-1.947274,-10.306413,0.745334,1
-1.783098,-10.513738,-0.444626,1
-2.292105,-9.213823,0.533715,1
-1.885776,-9.679462,0.226435,1
-2.731109,-10.116407,0.874354,1
-2.21638,-10.149065,0.974658,1
-2.635606,-10.340864,-0.519405,1
-2.159534,-9.334831,0.669022,1
-1.834946,-10.09798,0.311052,1
-2.093385,-10.192505,0.30387,1
-1.785355,-9.718314,0.953932,1
-3.338769,-10.36334,-0.693117,1
-1.904859,-9.355834,0.730107,1
-2.971525,-10.055486,0.471199,1
-2.771492,-10.000488,-0.001356,1
-1.438331,-9.592791,0.790784,1
-1.882901,-10.790574,-0.242965,1
-2.51337,-9.029439,0.919578,1
-3.396241,-10.180054,0.082851,1
-2.687353,-9.690271,-0.310001,1
-3.653608,-10.262851,0.124836,1
-2.22924,-9.946517,-0.488815,1
-1.799231,-9.356247,0.450248,1
-2.536622,-10.460107,-0.060348,1
-2.59521,-9.031178,0.683388,1
-2.856936,-9.869338,0.589045,1
-2.383973,-10.236011,-0.257534,1
-1.453791,-9.7006,0.96727,1
-2.459299,-10.404842,-0.152492,1
-2.153378,-9.302068,0.682566,1
-2.586126,-9.955129,0.722455,1
-2.118696,-10.464486,-0.35433,1
-0.586612,-9.830842,0.440615,1
-2.118081,-10.220963,-0.037337,1
-2.594507,-9.480879,0.875352,1
-2.664936,-10.469883,0.389261,1
-2.243878,-10.128545,-0.471578,1
-1.769142,-9.291874,0.722855,1
-2.3549,-9.840833,-0.249531,1
-2.582401,-9.866145,0.829196,1
-2.429464,-10.598765,0.702472,1
-1.987177,-10.244431,-0.538224,1
-2.468797,-9.085083,0.528584,1
-2.389335,-9.818793,-0.11618,1
-2.418504,-10.020208,0.648285,1
-2.422988,-10.084485,0.673043,1
-2.902559,-10.208917,-0.59695,1
-2.371935,-9.472532,0.431859,1
-3.122827,-9.729479,-0.132409,1
-2.96809,-9.671321,0.16918,1
-2.214396,-10.371043,0.952015,1
-2.125176,-10.28746,-0.729362,1
-2.19059,-9.201988,0.645489,1
-2.338193,-9.662505,-0.049408,1
-2.273163,-9.94634,0.845245,1
-2.753654,-10.660357,0.729838,1
-2.184161,-9.846848,-0.529721,1
-1.681317,-9.507215,0.341512,1
-2.271171,-9.802523,-0.125377,1
-1.971747,-9.989382,0.503118,1
-2.236265,-10.216285,1.284653,1
-2.027209,-10.495036,-0.689423,1
-2.537444,-9.235738,0.818489,1
-3.145984,-10.106926,-0.594099,1
-2.656177,-9.771969,0.704097,1
-2.443965,-10.49855,1.070426,1
-2.431432,-10.136892,-0.836765,1
-2.882104,-9.042398,1.017138,1
-3.227638,-9.80955,-0.585842,1
-2.81767,-9.591397,0.548011,1
-2.954551,-9.894253,0.951285,1
-2.060812,-10.527586,-0.382453,1
-1.448598,-9.349946,0.795438,1
-2.327814,-10.472555,-0.251311,1
-2.231518,-9.359509,1.082983,1
-2.953658,-10.242851,-0.128727,1
-3.100614,-9.996495,-0.183218,1
-2.878139,-9.670432,0.329797,1
-2.719402,-10.481454,-0.499851,1
-1.884065,-9.324982,0.277399,1
-2.107545,-9.712979,0.160631,1
-2.513502,-10.131171,0.712679,1
-1.634314,-10.304281,0.77977,1
-1.436444,-10.475071,-0.142117,1
-2.686373,-8.962465,1.404502,1
-2.349411,-9.788728,-0.064055,1
-2.295799,-10.08832,0.953041,1
-2.118657,-10.455319,0.733163,1
-1.072719,-10.197664,-0.58549,1
-2.579272,-9.171823,0.668337,1
-2.49069,-10.043518,0.700775,1
-2.141965,-9.658049,0.294534,1
-2.974586,-9.986589,0.392787,1
-2.735511,-10.224656,-0.37109,1
-1.757812,-9.087921,1.013645,1
-2.589318,-10.120066,-0.266085,1
-1.914313,-9.438274,0.780531,1
-2.600093,-10.109822,0.872227,1
-2.651634,-10.366865,-0.421309,1
-1.602574,-9.343173,0.959119,1
-1.850887,-10.723198,-0.222579,1
-2.278217,-9.241118,0.939703,1
-2.968119,-9.791739,-0.113174,1
-2.765558,-9.823515,0.768412,1
-3.239412,-10.349974,0.192472,1
-3.176337,-10.267103,-0.348733,1
-2.85155,-9.388979,0.182925,1
-2.340374,-10.251502,-0.031078,1
-2.087845,-9.471027,0.412909,1
-2.804805,-10.531113,0.93888,1
-2.606749,-9.983663,-0.538879,1
-2.200274,-9.195352,0.615203,1
-2.382468,-9.794381,-0.098082,1
-2.226488,-9.87323,0.884845,1
-2.676876,-10.017949,0.896328,1
-2.683888,-10.457912,-0.483092,1
-0.926314,-9.656134,0.451423,1
-2.220212,-10.100245,-0.397631,1
-2.136551,-9.529609,0.704269,1
-1.966631,-10.39389,0.837162,1
-2.500468,-10.162951,-0.477459,1
-2.799608,-9.254045,0.412156,1
-2.39878,-9.77337,-0.073949,1
-2.495413,-10.001417,0.227256,1
-2.118149,-10.214873,1.160447,1
-2.74228,-10.313663,-0.548932,1
-2.892228,-9.211361,0.463393,1
-2.731175,-9.691835,-0.210153,1
-2.711512,-9.71889,1.088186,1
-3.496987,-10.453655,0.59656,1
-1.621396,-10.046245,-0.385529,1
-2.055387,-9.201451,0.686411,1
-3.159887,-10.154964,-0.694115,1
-2.513297,-9.87708,0.050557,1
-2.838523,-9.817611,-0.539187,1
-2.663007,-9.868339,0.672709,1
-2.621067,-10.221167,0.302366,1
-1.289334,-10.407567,-0.089179,1
-2.283127,-9.120283,0.803195,1
-2.268573,-9.798624,-0.313354,1
-2.194874,-10.449664,-0.045087,1
-1.724474,-10.006643,1.381672,1
-1.848356,-10.453814,-0.515767,1
-2.221442,-9.179622,0.693715,1
-2.011983,-9.879513,-0.142583,1
-2.204848,-10.467955,-0.036573,1
-1.869835,-9.886866,0.76561,1
-2.060825,-10.577696,-0.607704,1
-1.816821,-9.260885,0.679007,1
-2.341784,-10.124388,0.964735,1
-2.598221,-10.361672,-0.283255,1
-1.211788,-9.71265,0.508574,1
-2.380424,-10.050034,-0.224784,1
-2.316593,-9.546616,0.897086,1
-2.574619,-10.583476,0.625689,1
-2.507119,-10.054097,-0.538415,1
-1.916832,-9.24115,0.814077,1
-2.159574,-10.447749,-0.170481,1
-2.570806,-9.830506,1.298667,1
-3.251647,-10.346582,0.023681,1
-3.106681,-9.586428,-0.227025,1
-2.979905,-9.491718,-0.295479,1
-2.826695,-10.346485,-0.209309,1
-2.094139,-9.241323,0.533031,1
-2.474953,-10.035372,0.909603,1
-2.643187,-10.159037,-0.000594,1
-1.712215,-9.764801,0.941505,1
-2.594173,-10.450331,-0.438002,1
-2.130053,-9.101228,0.894622,1
-2.500533,-9.998025,-0.003586,1
-2.671585,-10.093397,0.292962,1
-0.914482,-10.061234,0.667995,1
-1.861013,-10.386154,0.096371,1
-1.536232,-9.455548,0.986769,1
-2.029191,-10.088856,-0.269235,1
-1.785697,-9.728235,0.882379,1
-2.508248,-9.972157,0.921373,1
-2.682838,-10.401757,-0.520554,1
-1.776325,-9.543198,0.524411,1
-2.61676,-10.156114,-0.320469,1
-1.774026,-9.390431,0.908007,1
-2.627019,-10.095574,1.040191,1
-2.823684,-10.343789,-0.35294,1
-1.533607,-9.484536,0.454903,1
-2.144547,-9.696483,-0.131752,1
-2.389601,-10.33042,1.023726,1
-2.153641,-10.06859,0.083003,1
-1.328335,-10.696517,-0.014899,1
-2.274612,-9.279634,0.780183,1
-2.939771,-9.899862,0.129778,1
-2.628065,-9.808654,0.011093,1
-2.675794,-9.796682,0.512562,1
-2.49175,-10.670643,-0.396309,1
-2.187763,-9.139434,0.685716,1
-1.979468,-9.924038,-0.071778,1
-2.184572,-10.04687,0.798581,1
-2.133222,-10.320049,0.796077,1
-3.382835,-10.017249,-0.752587,1
-2.774536,-9.562678,-0.061712,1
-2.642389,-10.106431,-0.207559,1
-2.296962,-9.285681,0.719338,1
-2.708031,-10.003945,0.687539,1
-2.170615,-10.652942,-0.430398,1
-1.48006,-9.616115,0.623874,1
-1.539398,-10.373146,0.024376,1
-2.160036,-10.153263,0.510246,1
-2.346839,-10.226475,1.275451,1
-2.121433,-10.310709,-0.48129,1
-2.001941,-9.425346,0.256451,1
-1.863336,-10.171094,0.130052,1
-2.528997,-9.660842,0.63367,1
-2.790715,-9.976958,0.446567,1
-1.827961,-10.626637,-0.420976,1
-1.635029,-9.407856,0.575012,1
-2.18108,-9.669402,-0.172165,1
-2.559655,-10.279081,0.484631,1
-2.171689,-10.282232,0.93721,1
-1.935702,-10.509189,-0.478901,1
-2.306332,-9.044929,0.968296,1
-2.583823,-10.007303,-0.559083,1
-1.996935,-9.838229,0.722993,1
-2.300446,-10.304715,1.153359,1
-1.844205,-10.418363,-0.547183,1
-2.915369,-8.990223,0.849217,1
-2.713087,-10.125451,-0.563431,1
-2.477926,-9.755826,0.225257,1
-3.134179,-9.871066,-0.014831,1
-2.764161,-10.066128,-0.065503,1
-1.493838,-9.6232,1.60698,1
-2.27596,-10.679417,-0.213209,1
-2.747734,-9.000774,0.677697,1
-2.920001,-9.677202,0.208514,1
-2.876423,-9.993303,0.266959,1
-2.069649,-9.995974,1.067075,1
-2.443603,-10.582745,-0.565691,1
-2.461106,-9.095905,0.56618,1
-2.608671,-9.718372,-0.017088,1
-3.04987,-10.041855,0.382943,1
-2.094684,-9.991529,0.82745,1
-2.203984,-10.538582,-0.490473,1
-2.398134,-9.174079,0.693031,1
-2.053549,-9.803033,-0.245334,1
-2.188555,-10.221751,-0.121833,1
-1.990707,-10.286838,0.393825,1
-1.924628,-10.47543,-0.662156,1
-2.707537,-9.306796,0.060211,1
-2.202151,-10.244835,-0.170044,1
-2.060866,-9.519318,0.9384,1
-2.583732,-10.582346,0.749658,1
-1.812277,-10.662416,-0.225176,1
-2.375901,-9.140769,1.037359,1
-2.649572,-10.084747,-0.105938,1
-2.44308,-9.784235,-0.062721,1
-3.475572,-9.909374,0.126965,1
-2.643643,-10.144483,-0.334493,1
-2.058468,-9.435787,0.269286,1
-2.183439,-10.865963,-0.204462,1
-2.006237,-9.303162,0.499991,1
-2.112403,-9.95753,0.235397,1
-2.053572,-9.573981,1.084108,1
-2.279535,-10.079099,0.928289,1
-2.26078,-10.436966,-0.735081,1
-1.311234,-9.49627,0.967133,1
-2.444402,-10.539515,-0.492735,1
-1.854717,-9.328266,0.618058,1
-2.443472,-10.172538,0.781579,1
-2.289644,-10.378903,-0.65308,1
-1.808748,-9.445375,0.296894,1
-2.081946,-10.487307,-0.335316,1
-1.921415,-9.397835,0.791741,1
-2.403332,-10.096188,0.733047,1
-2.023133,-10.084218,-0.27621,1
-1.757001,-9.590613,1.163587,1
-2.273635,-10.700688,-0.178459,1
-2.628755,-9.089096,0.809246,1
-2.779523,-9.984127,0.182563,1
-2.733664,-9.855057,-0.058748,1
-1.622961,-10.088665,0.934709,1
-1.969025,-10.347169,-0.673854,1
-2.280134,-9.325719,0.637727,1
-2.396423,-9.905267,-0.062578,1
-2.559325,-9.901461,0.572884,1
-3.662203,-9.994469,-0.080774,1
-2.445865,-10.193355,-0.354404,1
-1.342206,-9.681659,0.219273,1
-1.973812,-10.390061,-0.047597,1
-2.387022,-9.278607,0.966224,1
-2.386175,-9.811279,-0.253892,1
-2.529063,-10.244097,0.685878,1
-1.475341,-9.795682,1.460543,1
-1.7981,-10.609346,-0.40083,1
-2.232482,-9.27243,0.680309,1
-2.350896,-9.925467,-0.139524,1
-2.731817,-9.853828,0.514355,1
-2.367188,-10.158836,0.707957,1
-2.000996,-10.707623,-0.519942,1
-2.310594,-9.057173,0.73702,1
-2.786041,-10.01997,0.06272,1
-2.744814,-9.853278,0.00658,1
-1.6333,-10.024628,1.112112,1
-1.970461,-10.723193,-0.269234,1
-2.672118,-9.03549,0.962207,1
-3.071997,-10.254276,0.006647,1
-2.958956,-9.917022,-0.345623,1
-1.961563,-9.751848,0.770672,1
-1.931128,-10.565658,-0.287634,1
-2.217953,-9.328882,0.608893,1
-2.093864,-9.813604,0.099954,1
-2.786267,-10.020669,0.550612,1
-3.037298,-10.003016,0.179437,1
-3.319216,-10.117738,-0.696443,1
-2.843044,-9.117916,0.962687,1
-2.74584,-9.720297,-0.544428,1
-2.674972,-9.957394,0.496638,1
-2.28572,-10.452127,1.059374,1
-2.116625,-9.957678,-0.312071,1
-1.443161,-9.641157,0.57029,1
-1.679455,-9.933784,-0.094168,1
-2.140791,-9.848284,0.529816,1
-1.964697,-10.479594,0.675769,1
-2.164049,-10.202148,-0.480059,1
-1.894666,-9.449489,0.450249,1
-1.903218,-9.759698,-0.255551,1
-2.265902,-9.949276,0.421518,1
-2.339441,-10.555398,0.798924,1
-1.598252,-10.330687,-0.38932,1
-2.27029,-9.1002,0.990737,1
-2.303323,-9.990571,0.065615,1
-1.923321,-9.984355,0.332534,1
-2.049947,-9.903214,0.728806,1
-2.258386,-10.372519,-0.441659,1
-2.481795,-9.24303,0.734555,1
-1.811095,-10.004314,-0.233921,1
-2.038866,-9.812373,0.820334,1
-2.650688,-10.426385,1.006261,1
-2.286186,-10.640537,-0.428225,1
-2.905947,-9.055019,0.619759,1
-3.005645,-9.933109,-0.343864,1
-2.516494,-9.573122,0.462487,1
-3.110854,-9.928127,0.088523,1
-2.725865,-9.791578,-0.483548,1
-1.599183,-10.008867,0.97438,1
-1.927775,-10.717997,-0.254799,1
-2.552275,-9.046133,0.40795,1
-2.636596,-10.138804,0.613955,1
-2.630486,-10.140746,-0.179293,1
-1.173813,-9.776033,0.659475,1
-2.25767,-10.564114,-0.28996,1
-1.822641,-9.375002,0.660272,1
-2.421596,-10.211522,0.95051,1
-2.217551,-10.608682,-0.359989,1
-1.105042,-9.242076,0.976804,1
-2.444401,-9.924205,-0.219131,1
-2.339142,-9.578902,0.924464,1
-2.683442,-10.232194,-0.159206,1
-2.528132,-9.794318,0.09298,1
-1.793511,-10.338935,0.978701,1
-2.523726,-10.600133,-0.338116,1
-2.297025,-9.295925,0.653423,1
-2.555055,-10.113016,-0.004776,1
-2.516826,-9.911237,-0.025532,1
-2.199462,-9.868474,0.55626,1
-1.348037,-10.782164,-0.363497,1
-2.305871,-9.0734,0.92317,1
-2.851185,-9.926406,0.130325,1
-3.006466,-10.183202,0.22021,1
-2.612038,-9.828176,0.063493,1
-3.014091,-10.256801,-0.374887,1
-2.913297,-9.061686,0.578656,1
-2.057548,-10.215,-0.154537,1
-1.94645,-9.620358,0.865483,1
-2.286984,-10.3668,1.411919,1
-2.676446,-10.106116,-0.460934,1
-1.455678,-9.497252,0.7353,1
-2.146126,-10.136684,-0.266976,1
-2.184982,-9.981034,1.010247,1
-3.066116,-10.309136,0.560393,1
-1.949734,-10.350108,-0.40701,1
-0.918698,-9.629913,0.272745,1
-2.650894,-9.865184,-0.253157,1
-2.513835,-9.977677,0.634935,1
-2.466949,-10.182378,0.534261,1
-2.716278,-10.366269,-0.49646,1
-2.290707,-9.16418,0.633671,1
-2.600753,-10.085656,0.626473,1
-2.499734,-10.181249,-0.095364,1
-1.63705,-9.610781,0.578109,1
-2.461204,-10.618606,-0.503864,1
-1.935095,-9.239202,0.462436,1
-2.757111,-10.15398,1.29068,1
-3.029379,-10.235195,-0.558039,1
-1.901318,-9.461327,0.720262,1
-3.156478,-10.055023,-0.398829,1
-2.756169,-9.424853,0.882721,1
-3.841486,-9.923406,-0.204965,1
-3.045389,-10.040848,-0.629592,1
-1.807346,-9.512137,0.264962,1
-1.804851,-11.004889,-0.492508,1
-2.552142,-9.031567,0.783574,1
-2.706166,-10.044266,0.455869,1
-2.558528,-10.372518,-0.318092,1
-1.322918,-9.809085,0.481108,1
-2.273567,-10.165825,-0.121407,1
-2.130303,-9.50544,1.004146,1
-2.450787,-10.092531,0.428101,1
-2.703842,-9.938039,-0.221392,1
-1.518074,-9.800786,1.083678,1
-2.476149,-10.643688,-0.190715,1
-2.257117,-9.509764,1.013722,1
-2.940369,-10.038517,0.701168,1
-2.569101,-10.447473,-0.415921,1
-2.018393,-9.289727,0.647949,1
-1.995887,-10.020039,0.168064,1
-2.506898,-9.633628,0.745704,1
-2.914531,-10.31014,0.512565,1
-2.513434,-10.206455,-0.220927,1
-2.321108,-9.508378,0.128068,1
-2.913266,-10.182116,-0.528914,1
-2.380921,-9.221457,0.835856,1
-2.480474,-9.758299,-0.103598,1
-2.311644,-9.696666,-0.200524,1
-2.486446,-10.153923,1.013513,1
-3.507628,-10.099049,-0.694847,1
-2.611331,-9.417766,0.559383,1
-2.850158,-9.718041,-0.263283,1
-2.861788,-9.9472,0.498486,1
-2.742419,-10.566478,0.589055,1
-1.439037,-10.40012,-0.567354,1
-2.07219,-9.10668,0.958194,1
-1.917546,-9.813337,-0.066766,1
-2.266699,-10.481788,0.161349,1
-1.860876,-9.736783,1.025415,1
-2.946852,-10.356559,-0.465267,1
-2.411582,-9.226475,0.745495,1
-1.793511,-10.127178,1.077861,1
-1.663123,-10.156119,-0.660057,1
-1.868257,-9.671515,0.451121,1
-1.964577,-10.540828,-0.199186,1
-2.044104,-9.307631,0.530454,1
-2.756921,-10.166304,0.867328,1
-2.404566,-10.459576,-0.325937,1
-1.620428,-9.684661,0.474681,1
-2.312988,-10.02383,-0.190932,1
-2.326467,-9.507636,1.066567,1
-2.694795,-10.248685,0.763424,1
-1.842394,-10.499279,-0.349348,1
-2.609194,-8.962675,0.588783,1
-2.257455,-9.792989,-0.24786,1
-2.798479,-10.03201,0.931283,1
-2.838257,-10.271239,0.030454,1
-3.051733,-10.105299,-0.680148,1
-3.075858,-9.245474,0.350065,1
-2.551993,-10.318386,-0.504897,1
-2.006929,-9.47762,0.322956,1
-2.849289,-10.316987,1.084247,1
-2.517774,-10.259267,-0.507217,1
-1.610023,-9.52956,0.62436,1
-2.219935,-9.939332,-0.010727,1
-2.713751,-9.51533,1.02326,1
-2.87499,-10.464622,0.639333,1
-2.106452,-10.15358,-0.314859,1
-1.976144,-9.049623,0.670041,1
-1.879914,-9.823329,-0.109391,1
-2.544826,-10.097517,0.468204,1
-2.637623,-10.369059,0.660197,1
-2.246984,-10.077769,-0.413721,1
-2.241627,-9.309028,0.60394,1
-2.803096,-10.011845,0.475571,1
-1.950817,-9.942344,-0.580509,1
-1.952327,-10.204327,1.271792,1
-2.397051,-10.485179,-0.397632,1
-2.381374,-9.18735,0.398681,1
-2.961884,-9.924671,0.524269,1
-2.287856,-10.224623,-0.401097,1
-1.868254,-9.173186,0.934018,1
-1.734522,-10.388615,-0.085987,1
-2.601504,-9.130025,1.078567,1
-3.375281,-10.035136,0.568828,1
-3.060503,-10.395744,-0.375939,1
-2.03832,-9.573321,-0.112789,1
-2.944079,-10.02108,-0.453722,1
-2.102297,-9.420958,0.565635,1
-2.666665,-10.468822,0.939264,1
-2.466198,-9.957941,-0.370269,1
-1.460837,-9.446676,0.903926,1
-2.156593,-10.268845,0.101526,1
-2.185697,-9.593474,0.50405,1
-2.46312,-9.90732,1.525873,1
-2.949513,-10.059546,-0.046482,1
-1.75724,-9.471577,0.484051,1
-1.669214,-10.345119,-0.292287,1
-1.906439,-9.719833,0.130091,1
-2.492738,-10.41318,1.029998,1
-1.778947,-10.282735,-0.50996,1
-2.216927,-9.272994,0.776624,1
-2.651964,-9.724753,-0.220461,1
-2.791467,-9.960541,0.592885,1
-2.864798,-10.372138,0.802208,1
-1.955957,-10.297917,-0.480606,1
-2.210303,-9.091422,0.726844,1
-2.388005,-9.897071,-0.012631,1
-2.836682,-9.999055,0.284648,1
-2.536382,-9.982636,0.731749,1
-1.797188,-10.672095,-0.22771,1
-3.09117,-8.850338,0.95283,1
-2.857137,-9.776732,-0.121339,1
-2.927233,-9.760402,0.703102,1
-3.650881,-10.235784,-0.146175,1
-3.127613,-9.878246,-0.430328,1
-2.083809,-9.600254,0.012508,1
-2.082782,-10.143729,-0.00375,1
-2.749464,-9.593276,0.843895,1
-2.691046,-10.590145,0.523247,1
-2.073933,-10.054364,-0.362983,1
-2.326355,-9.063291,0.599087,1
-2.102073,-10.111715,0.472421,1
-2.781547,-10.296138,0.096534,1
-2.164209,-9.821627,0.642853,1
-1.597376,-10.498074,-0.44093,1
-2.39079,-9.087032,0.545617,1
-2.052751,-9.773314,-0.198775,1
-2.752338,-10.174376,0.90119,1
-1.833344,-9.595492,0.489469,1
-1.663125,-10.660913,-0.186004,1
-2.03458,-9.59857,0.525342,1
-2.741596,-10.189485,1.083695,1
-3.099413,-9.999958,-0.174033,1
-2.604349,-9.458932,-0.053266,1
-2.241757,-9.674193,-0.376971,1
-2.919519,-10.233924,0.738017,1
-2.306336,-9.843534,0.463416,1
-1.467815,-10.823547,-0.127085,1
-2.872165,-9.038815,0.770871,1
-3.459106,-10.169793,0.351208,1
-3.11051,-10.042903,-0.79021,1
-2.658283,-9.678983,0.208172,1
-1.714835,-10.677184,-0.298672,1
-2.396916,-9.082046,0.494674,1
-2.735648,-10.035512,1.124945,1
-2.788799,-10.313925,-0.206161,1
-0.84402,-9.791921,0.337595,1
-2.216353,-10.243035,0.046825,1
-2.452448,-9.409669,0.713691,1
-2.61459,-10.3527,0.499529,1
-1.892137,-10.409969,-0.223401,1
-1.996354,-9.168967,0.483169,1
-2.207536,-9.921334,-0.175501,1
-2.578146,-10.077568,0.709153,1
-1.429883,-9.555562,0.778936,1
-1.786396,-10.632623,-0.228908,1
-2.38924,-9.324299,0.513944,1
-2.509577,-10.063335,0.971185,1
-2.806105,-10.270282,-0.231883,1
-1.605789,-9.561598,0.695698,1
-2.393992,-10.127445,-0.308781,1
-1.810597,-9.454611,0.788594,1
-2.648509,-10.272562,1.013284,1
-2.491507,-10.295044,-0.689244,1
-1.921139,-9.473833,0.575852,1
-3.029176,-9.842198,-0.087821,1
-2.710756,-9.609634,0.474455,1
-3.637446,-9.864614,-0.220393,1
-3.023294,-10.295385,-0.458581,1
-1.274834,-9.704338,0.564969,1
-2.544453,-10.401618,-0.359939,1
-2.139075,-9.250504,0.802529,1
-2.991212,-10.320696,0.941481,1
-2.155701,-10.352503,-0.597081,1
-1.499896,-9.557561,0.325351,1
-2.334868,-9.663703,-0.11106,1
-2.686017,-10.317852,0.614184,1
-1.198433,-9.948295,0.529747,1
-1.703952,-10.823206,-0.372593,1
-2.228692,-9.4555,0.456759,1
-2.795285,-10.316389,0.929221,1
-2.251881,-10.36988,-0.458922,1
-2.508049,-9.437717,-0.445251,1
-2.01663,-9.901414,-0.0573,1
-2.366324,-9.954666,0.552934,1
-2.407492,-10.329425,0.969724,1
-2.55786,-10.154334,-0.42506,1
-2.848291,-9.321864,-0.201107,1
-2.712321,-9.796844,-0.107316,1
-2.708895,-9.783015,0.94791,1
-2.94325,-9.749801,0.454947,1
-2.213496,-10.851026,-0.297407,1
-1.835359,-9.217039,0.993811,1
-3.427489,-10.30721,-0.576864,1
-2.409214,-9.693006,0.023476,1
-3.062904,-9.935047,0.045161,1
-2.062752,-9.867896,-0.365377,1
-2.221808,-10.134028,-0.098023,1
-1.628577,-10.650911,-0.248194,1
-1.959242,-9.410625,0.597604,1
-2.789567,-10.246358,1.154475,1
-1.944193,-10.60485,-0.786448,1
-1.079477,-9.546137,0.538571,1
-2.306674,-10.077034,-0.251378,1
-2.368254,-9.639561,0.711614,1
-2.451832,-10.545137,0.979994,1
-2.406494,-10.147861,-0.844086,1
-1.621662,-9.39349,0.79774,1
-2.035857,-9.788431,-0.286881,1
-2.356082,-10.03806,0.643447,1
-2.051247,-10.572224,0.926364,1
-1.823573,-10.418077,-0.85559,1
-2.460861,-9.081456,0.607045,1
-2.259383,-10.018843,-0.006711,1
-2.522906,-10.085517,0.581324,1
-2.148589,-10.008423,0.521402,1
-1.635761,-10.65969,-0.457884,1
-2.274456,-9.104375,0.754255,1
-2.345508,-10.084285,0.487757,1
-2.598973,-9.957667,0.283759,1
-2.855563,-10.226638,-0.179689,1
-2.804328,-9.856359,-0.470892,1
-2.254861,-9.660909,-0.158412,1
-1.83774,-10.082687,0.129292,1
-2.255782,-9.504274,0.975274,1
-2.578713,-10.237987,0.659843,1
-2.813443,-10.169679,-0.210617,1
-1.549671,-9.137734,0.861652,1
-2.594639,-10.459043,-0.407674,1
-1.997275,-9.340097,0.697136,1
-2.776198,-10.120129,0.774928,1
-2.497739,-10.433437,-0.265618,1
-1.023931,-9.701828,0.765336,1
-2.371713,-10.177792,-0.199911,1
-2.40245,-9.439262,1.106282,1
-3.001786,-10.084483,0.560181,1
-2.828201,-10.06431,-0.212319,1
-2.124378,-9.641357,0.484897,1
-2.370048,-10.869982,-0.849937,1
-2.531244,-9.147378,0.814332,1
-2.606676,-10.041188,0.375229,1
-3.006877,-10.219252,0.089967,1
-1.981525,-9.579973,0.34916,1
-2.238885,-10.62428,-0.252472,1
-1.900453,-9.165109,0.662334,1
-2.229123,-10.095523,1.226569,1
-2.44807,-10.132376,-0.021946,1
-2.149584,-9.786207,0.089191,1
-3.180218,-10.1713,-0.264718,1
-2.595502,-9.348134,0.690998,1
-2.569216,-9.805123,0.121432,1
-3.081924,-10.179651,0.103022,1
-0.872413,-9.805013,1.217261,1
-1.581094,-10.630297,-0.158877,1
-2.03393,-9.330112,0.830527,1
-2.057404,-9.816615,-0.214713,1
-2.409222,-10.061074,0.391522,1
-2.410447,-10.2198,1.530386,1
-2.300589,-10.084423,-0.38518,1
-2.825669,-9.164433,0.582214,1
-2.213494,-9.566402,-0.117976,1
-2.684208,-10.219113,0.286564,1
-2.218018,-10.050034,0.955357,1
-2.280932,-10.668669,-0.314568,1
-2.235463,-9.134469,0.576263,1
-2.448925,-10.132034,0.647437,1
-2.25243,-10.412292,-0.465078,1
-1.670078,-9.614821,0.605605,1
-2.214227,-10.298366,-0.304458,1
-2.63598,-9.374782,0.763421,1
-2.804996,-10.014852,0.698047,1
-2.544523,-10.397381,-0.489567,1
-1.519443,-9.54652,0.541826,1
-2.06036,-10.348425,-0.00329,1
-2.532856,-9.307632,1.097481,1
-2.744745,-10.393752,-0.298167,1
-2.606018,-9.804235,-0.289617,1
-3.344047,-9.842198,0.022176,1
-1.973211,-10.557339,-0.241876,1
-0.864628,-9.656187,0.678828,1
-2.244562,-10.136276,0.087709,1
-2.336282,-9.270419,1.290987,1
-2.58659,-9.951872,0.167733,1
-2.603897,-9.976069,0.463051,1
-2.690673,-9.892414,0.409479,1
-2.117193,-10.604426,-0.392975,1
-2.298057,-9.042878,0.871776,1
-2.119988,-9.962579,-0.164131,1
-1.67317,-10.20263,-0.068736,1
-1.547242,-9.765057,1.468049,1
-1.897195,-9.969166,-0.295812,1
-2.022243,-10.249895,1.076991,1
-2.134087,-10.045021,-0.568028,1
-1.369038,-9.521103,0.667927,1
-1.902715,-10.042252,-0.14438,1
-1.772915,-9.646855,0.642652,1
-2.629088,-10.144938,0.821217,1
-2.271445,-10.485964,-0.474451,1
-1.272772,-9.640159,0.401699,1
-2.461136,-10.248049,-0.222239,1
-2.129565,-9.490521,0.969857,1
-3.010365,-10.144005,0.111535,1
-2.200441,-9.866823,-0.199527,1
-3.318153,-10.245893,0.184957,1
-1.721463,-10.28615,-0.168471,1
-1.525827,-9.351458,0.722388,1
-2.366599,-9.934681,-0.2758,1
-2.098241,-9.816334,0.867904,1
-2.928821,-9.91761,0.81574,1
-2.709429,-10.328029,-0.380074,1
-1.504612,-9.492649,0.698046,1
-1.983595,-10.481929,-0.232363,1
-2.409421,-9.327265,0.724795,1
-2.795818,-9.748096,-0.292288,1
-2.615675,-9.942467,0.304014,1
-3.102165,-10.027236,-0.325052,1
-3.163461,-9.899865,-0.382336,1
-1.938363,-9.477287,0.706293,1
-2.246614,-10.56491,-0.102826,1
-2.235396,-9.265334,0.557929,1
-2.18197,-10.019307,0.576541,1
-2.57161,-9.964094,-0.134132,1
-1.602641,-9.772374,0.820418,1
-2.132582,-10.629274,-0.197681,1
-2.255792,-9.104392,0.681886,1
-2.809586,-10.004413,0.526994,1
-2.545684,-9.709904,0.23143,1
-2.906866,-10.194555,0.342726,1
-3.222832,-9.785899,-0.537589,1
-3.062772,-9.469105,0.075489,1
-2.222261,-10.259679,0.204067,1
-2.277894,-9.765402,0.653665,1
-2.976785,-10.025467,0.971049,1
-2.62661,-10.301612,-0.506943,1
-1.941652,-9.132597,0.965949,1
-2.912614,-10.544659,-0.477937,1
-2.512172,-9.109046,1.008098,1
-2.730859,-9.762983,-0.072086,1
-2.8749,-9.900868,-0.43253,1
-2.258201,-9.281542,0.980126,1
-3.43522,-10.066145,-0.643066,1
-2.277938,-9.662371,0.180104,1
-2.878474,-10.233503,-0.116451,1
-1.915948,-9.238467,0.585055,1
-2.787986,-10.079078,1.049736,1
-2.20312,-10.715756,-0.449108,1
-1.259178,-9.61858,0.325488,1
-2.428437,-9.881598,-0.050197,1
-2.476396,-9.669961,0.859749,1
-2.720513,-9.893684,0.875013,1
-2.943559,-9.787414,-0.211183,1
-2.310413,-9.461514,0.408164,1
-3.050402,-9.978872,-0.411465,1
-2.183833,-9.628188,0.138869,1
-2.66683,-9.788776,-0.238997,1
-2.523078,-9.751955,0.096637,1
-2.021422,-10.419681,1.255395,1
-2.951746,-10.083215,-0.406117,1
-1.462181,-9.598195,0.436481,1
-2.264812,-10.173009,-0.131942,1
-1.889147,-9.393492,0.521077,1
-2.813309,-10.746414,0.953562,1
-2.111922,-9.949869,-0.804644,1
-1.623922,-9.429605,0.273675,1
-2.088392,-9.765447,-0.115662,1
-2.255302,-10.019917,0.465308,1
-2.71116,-10.448956,1.139105,1
-2.309263,-10.065062,-0.325806,1
-2.542607,-9.218199,0.536861,1
-2.593972,-9.920151,-0.524724,1
-2.080008,-9.785083,0.412177,1
-2.83426,-10.099248,0.954959,1
-2.393127,-10.368198,-0.420909,1
-2.192643,-9.538067,-0.051293,1
-2.748302,-10.390812,-0.319512,1
-1.960472,-9.282708,0.827313,1
-2.171795,-9.789398,-0.163731,1
-2.437286,-9.871932,0.672843,1
-2.081961,-10.567571,1.425178,1
-2.097709,-10.05715,-0.567753,1
-2.66389,-9.333671,0.392114,1
-2.981019,-9.960061,-0.456665,1
-2.454979,-9.586976,0.646106,1
-3.164856,-9.84952,0.882668,1
-2.846259,-10.485762,-0.453449,1
-1.33469,-9.604115,0.547213,1
-2.706574,-10.110691,-0.258288,1
-2.49395,-9.31335,1.02612,1
-2.662208,-9.988251,0.732631,1
-2.069101,-10.139833,-0.56331,1
-1.370337,-9.833294,1.300255,1
-1.923875,-10.40764,-0.291259,1
-2.702441,-9.336146,0.534341,1
-1.850567,-10.426896,-0.094716,1
-1.997433,-9.51532,0.315036,1
-2.28639,-9.960956,0.611495,1
-2.211087,-10.03533,-0.658281,1
-1.450302,-9.576304,0.880464,1
-2.625565,-10.414152,-0.423169,1
-2.143596,-9.21615,0.573527,1
-2.887596,-9.97382,0.612987,1
-2.553894,-10.100908,-0.320605,1
-1.808681,-9.736238,0.817325,1
-2.356481,-10.581746,-0.376948,1
-2.466882,-9.07961,0.428782,1
-2.247012,-9.787205,-0.033115,1
-2.532687,-10.008423,0.548696,1
-2.072836,-10.060408,0.890781,1
-3.032067,-10.264709,-0.400865,1
-2.243157,-9.50888,0.4011,1
-2.955915,-9.882078,-0.446677,1
-2.6241,-9.584296,0.63992,1
-3.125698,-9.85458,-0.055669,1
-2.971194,-9.729412,-0.139989,1
-2.033189,-9.919564,1.165783,1
-2.310793,-10.495091,-0.671501,1
-2.280555,-9.189279,0.534914,1
-2.228858,-9.674079,-0.24314,1
-2.625829,-9.950743,0.433622,1
-2.043106,-10.377951,1.094916,1
-2.221675,-10.345054,-0.542547,1
-2.252497,-9.109094,0.408943,1
-2.24646,-10.108544,-0.213808,1
-1.878912,-9.792203,0.391385,1
-2.311806,-10.82642,1.170641,1
-2.022859,-10.136889,-0.75977,1
-2.108681,-9.21519,0.237498,1
-2.345528,-10.15379,-0.328608,1
-2.537377,-9.815733,0.25572,1
-2.112045,-10.480671,1.067554,1
-2.192553,-10.699834,-0.349661,1
-2.771742,-9.187122,0.778653,1
-2.934368,-9.85369,-0.379297,1
-2.634202,-9.730423,0.304349,1
-2.867578,-10.126914,1.243527,1
-2.544863,-10.221643,-0.3191,1
-1.865242,-9.384725,0.318631,1
-1.851708,-9.906569,-0.115798,1
